Participant_ID,Trial_Number,Reaction_Time,Accuracy,Presentation_Rate,item,triplet,Sentence_Type,Experiment,Location
p_13784318,1,403,1,250,i_59,,baseline,2a,Central
p_13784318,2,588.6000004,1,125,i_8,,baseline,2a,Central
p_13784318,3,599.3999996,1,250,i_57,,baseline,2a,Central
p_13784318,4,1162.799999,0,125,i_224,112,control,2a,Central
p_13784318,5,921.8999996,1,125,i_16,,baseline,2a,Central
p_13784318,6,298.8999996,1,250,i_129,17,transposed,2a,Central
p_13784318,7,668,1,250,i_173,61,control,2a,Central
p_13784318,8,333,1,250,i_117,5,transposed,2a,Central
p_13784318,9,395.7000008,0,250,i_80,,baseline,2a,Central
p_13784318,10,402.5,1,250,i_64,,baseline,2a,Central
p_13784318,11,876.3000002,0,125,i_32,,baseline,2a,Central
p_13784318,12,528.1000004,1,250,i_94,,baseline,2a,Central
p_13784318,13,619.5,1,250,i_104,,baseline,2a,Central
p_13784318,14,210.6999998,1,250,i_193,81,control,2a,Central
p_13784318,15,962.8999996,1,125,i_31,,baseline,2a,Central
p_13784318,16,547.7000008,1,125,i_51,,baseline,2a,Central
p_13784318,17,278.6999998,1,250,i_182,70,control,2a,Central
p_13784318,18,323.5,1,250,i_73,,baseline,2a,Central
p_13784318,19,326.5,1,250,i_125,13,transposed,2a,Central
p_13784318,20,391.1999998,1,250,i_119,7,transposed,2a,Central
p_13784318,21,581.8000002,1,250,i_74,,baseline,2a,Central
p_13784318,22,827.7000008,1,125,i_211,99,control,2a,Central
p_13784318,23,228.2999992,1,250,i_115,3,transposed,2a,Central
p_13784318,24,422.8999996,1,250,i_60,,baseline,2a,Central
p_13784318,25,308.7000008,1,250,i_65,,baseline,2a,Central
p_13784318,26,225.3999996,1,250,i_138,26,transposed,2a,Central
p_13784318,27,580.3999996,1,250,i_118,6,transposed,2a,Central
p_13784318,28,889.5,1,125,i_30,,baseline,2a,Central
p_13784318,29,285.3000002,1,250,i_139,27,transposed,2a,Central
p_13784318,30,465.1999998,0,125,i_20,,baseline,2a,Central
p_13784318,31,439.5,1,125,i_17,,baseline,2a,Central
p_13784318,32,441.0999994,1,250,i_61,,baseline,2a,Central
p_13784318,33,779.5999994,1,250,i_66,,baseline,2a,Central
p_13784318,34,1164.1,0,125,i_145,33,transposed,2a,Central
p_13784318,35,1167.1,0,250,i_136,24,transposed,2a,Central
p_13784318,36,376.9000006,0,250,i_179,67,control,2a,Central
p_13784318,37,477.3000002,1,125,i_41,,baseline,2a,Central
p_13784318,38,917.3999996,1,125,i_12,,baseline,2a,Central
p_13784318,39,272.8000002,1,250,i_170,58,control,2a,Central
p_13784318,40,730.3999996,0,125,i_147,35,transposed,2a,Central
p_13784318,41,359.3000002,1,125,i_53,,baseline,2a,Central
p_13784318,42,392.5999994,1,125,i_23,,baseline,2a,Central
p_13784318,43,361.7999992,1,250,i_100,,baseline,2a,Central
p_13784318,44,504.8999996,0,125,i_144,32,transposed,2a,Central
p_13784318,45,1006.9,1,250,i_95,,baseline,2a,Central
p_13784318,46,251.1000004,1,250,i_72,,baseline,2a,Central
p_13784318,47,373,1,250,i_111,,baseline,2a,Central
p_13784318,48,273.5999994,1,250,i_124,12,transposed,2a,Central
p_13784318,49,680.1999998,1,125,i_204,92,control,2a,Central
p_13784318,50,268,1,250,i_102,,baseline,2a,Central
p_13784318,51,219.1999998,1,250,i_190,78,control,2a,Central
p_13784318,52,426.1999998,1,250,i_86,,baseline,2a,Central
p_13784318,53,793.7000008,0,125,i_148,36,transposed,2a,Central
p_13784318,54,757,0,125,i_56,,baseline,2a,Central
p_13784318,55,651.1999998,0,125,i_150,38,transposed,2a,Central
p_13784318,56,362.3999996,1,125,i_48,,baseline,2a,Central
p_13784318,57,240.8000002,1,250,i_81,,baseline,2a,Central
p_13784318,58,430.9000006,1,250,i_69,,baseline,2a,Central
p_13784318,59,321.3999996,0,125,i_155,43,transposed,2a,Central
p_13784318,60,299.1999998,1,250,i_185,73,control,2a,Central
p_13784318,61,461.8000002,1,125,i_37,,baseline,2a,Central
p_13784318,62,364.5,1,125,i_25,,baseline,2a,Central
p_13784318,63,352.9000006,1,250,i_135,23,transposed,2a,Central
p_13784318,64,365.7999992,1,125,i_27,,baseline,2a,Central
p_13784318,65,581,0,125,i_199,87,control,2a,Central
p_13784318,66,377.0999994,1,250,i_188,76,control,2a,Central
p_13784318,67,455.6999998,0,125,i_214,102,control,2a,Central
p_13784318,68,221.3000002,1,125,i_216,104,control,2a,Central
p_13784318,69,236.8000002,1,125,i_38,,baseline,2a,Central
p_13784318,70,233.3000002,1,250,i_79,,baseline,2a,Central
p_13784318,71,391.1999998,1,250,i_181,69,control,2a,Central
p_13784318,72,28.29999924,1,250,i_116,4,transposed,2a,Central
p_13784318,73,1080.8,1,125,i_200,88,control,2a,Central
p_13784318,74,436.3999996,1,125,i_7,,baseline,2a,Central
p_13784318,75,528.1000004,1,125,i_11,,baseline,2a,Central
p_13784318,76,289.3999996,0,125,i_160,48,transposed,2a,Central
p_13784318,77,3.299999237,1,250,i_128,16,transposed,2a,Central
p_13784318,78,380,1,250,i_68,,baseline,2a,Central
p_13784318,79,289.5999994,1,250,i_109,,baseline,2a,Central
p_13784318,80,1862.8,1,250,i_191,79,control,2a,Central
p_13784318,81,1147.8,1,125,i_15,,baseline,2a,Central
p_13784318,82,642.8999996,1,250,i_91,,baseline,2a,Central
p_13784318,83,1350.3,1,250,i_175,63,control,2a,Central
p_13784318,84,879.1999998,1,125,i_220,108,control,2a,Central
p_13784318,85,643,1,125,i_223,111,control,2a,Central
p_13784318,86,424.5999994,1,125,i_45,,baseline,2a,Central
p_13784318,87,379.3000002,1,125,i_205,93,control,2a,Central
p_13784318,88,226.0999994,0,250,i_98,,baseline,2a,Central
p_13784318,89,514.1999998,0,125,i_159,47,transposed,2a,Central
p_13784318,90,846.5999994,1,125,i_218,106,control,2a,Central
p_13784318,91,281.3000002,1,250,i_84,,baseline,2a,Central
p_13784318,92,608.3000002,1,125,i_219,107,control,2a,Central
p_13784318,93,400.7999992,0,125,i_152,40,transposed,2a,Central
p_13784318,94,1458.3,0,250,i_92,,baseline,2a,Central
p_13784318,95,222.6999998,1,250,i_180,68,control,2a,Central
p_13784318,96,559.8999996,1,125,i_52,,baseline,2a,Central
p_13784318,97,257.1000004,1,125,i_40,,baseline,2a,Central
p_13784318,98,733.3999996,1,250,i_194,82,control,2a,Central
p_13784318,99,319,1,125,i_142,30,transposed,2a,Central
p_13784318,100,366.2999992,1,250,i_97,,baseline,2a,Central
p_13784318,101,741.3000002,1,125,i_6,,baseline,2a,Central
p_13784318,102,469.5,0,125,i_143,31,transposed,2a,Central
p_13784318,103,372.0999994,1,250,i_93,,baseline,2a,Central
p_13784318,104,546.6999998,1,125,i_198,86,control,2a,Central
p_13784318,105,244.3999996,1,250,i_63,,baseline,2a,Central
p_13784318,106,422,0,125,i_212,100,control,2a,Central
p_13784318,107,686.5,1,125,i_197,85,control,2a,Central
p_13784318,108,499.6000004,1,125,i_42,,baseline,2a,Central
p_13784318,109,334.6999998,1,250,i_105,,baseline,2a,Central
p_13784318,110,809.3000002,1,125,i_9,,baseline,2a,Central
p_13784318,111,597.9000006,1,125,i_54,,baseline,2a,Central
p_13784318,112,1651.2,1,125,i_161,49,transposed,2a,Central
p_13784318,113,341.3000002,1,125,i_5,,baseline,2a,Central
p_13784318,114,474.8000002,1,125,i_4,,baseline,2a,Central
p_13784318,115,2036.2,0,125,i_206,94,control,2a,Central
p_13784318,116,343.2999992,1,250,i_178,66,control,2a,Central
p_13784318,117,219.1999998,1,125,i_210,98,control,2a,Central
p_13784318,118,674.9000006,1,125,i_217,105,control,2a,Central
p_13784318,119,600.1000004,1,250,i_176,64,control,2a,Central
p_13784318,120,370.6999998,1,250,i_133,21,transposed,2a,Central
p_13784318,121,329.6000004,1,125,i_49,,baseline,2a,Central
p_13784318,122,200.5,1,250,i_112,,baseline,2a,Central
p_13784318,123,387,0,250,i_132,20,transposed,2a,Central
p_13784318,124,154.5,1,250,i_186,74,control,2a,Central
p_13784318,125,905.0999994,1,125,i_43,,baseline,2a,Central
p_13784318,126,219.0999994,1,250,i_174,62,control,2a,Central
p_13784318,127,440.5,0,125,i_157,45,transposed,2a,Central
p_13784318,128,774.1000004,0,125,i_164,52,transposed,2a,Central
p_13784318,129,290.3999996,1,250,i_62,,baseline,2a,Central
p_13784318,130,346.8999996,1,125,i_55,,baseline,2a,Central
p_13784318,131,576,0,125,i_163,51,transposed,2a,Central
p_13784318,132,287.6999998,1,250,i_107,,baseline,2a,Central
p_13784318,133,578.5,1,125,i_39,,baseline,2a,Central
p_13784318,134,431.9000006,0,125,i_146,34,transposed,2a,Central
p_13784318,135,677.1999998,1,125,i_222,110,control,2a,Central
p_13784318,136,215.2999992,1,250,i_196,84,control,2a,Central
p_13784318,137,425.8000002,1,125,i_141,29,transposed,2a,Central
p_13784318,138,255.5999994,1,250,i_78,,baseline,2a,Central
p_13784318,139,390.6000004,0,125,i_35,,baseline,2a,Central
p_13784318,140,1232.8,1,125,i_149,37,transposed,2a,Central
p_13784318,141,464.9000006,0,125,i_168,56,transposed,2a,Central
p_13784318,142,563.6999998,0,125,i_34,,baseline,2a,Central
p_13784318,143,302.6000004,1,250,i_67,,baseline,2a,Central
p_13784318,144,540.5,1,125,i_21,,baseline,2a,Central
p_13784318,145,262.4000006,1,250,i_77,,baseline,2a,Central
p_13784318,146,719,1,250,i_130,18,transposed,2a,Central
p_13784318,147,237.8000002,1,250,i_187,75,control,2a,Central
p_13784318,148,293.8000002,1,125,i_3,,baseline,2a,Central
p_13784318,149,687,0,125,i_208,96,control,2a,Central
p_13784318,150,705.5999994,1,250,i_108,,baseline,2a,Central
p_13784318,151,313.5,1,250,i_71,,baseline,2a,Central
p_13784318,152,345.4000006,1,125,i_13,,baseline,2a,Central
p_13784318,153,1225.4,0,125,i_215,103,control,2a,Central
p_13784318,154,358.3999996,1,250,i_96,,baseline,2a,Central
p_13784318,155,798.5,0,125,i_153,41,transposed,2a,Central
p_13784318,156,206.0999994,1,250,i_82,,baseline,2a,Central
p_13784318,157,229.8000002,1,250,i_101,,baseline,2a,Central
p_13784318,158,1192.700001,1,250,i_137,25,transposed,2a,Central
p_13784318,159,600,1,125,i_36,,baseline,2a,Central
p_13784318,160,699,0,125,i_151,39,transposed,2a,Central
p_13784318,161,320.6000004,1,250,i_90,,baseline,2a,Central
p_13784318,162,450.6999998,0,125,i_165,53,transposed,2a,Central
p_13784318,163,480.5,1,125,i_33,,baseline,2a,Central
p_13784318,164,511,1,125,i_213,101,control,2a,Central
p_13784318,165,262.0999994,1,250,i_195,83,control,2a,Central
p_13784318,166,262.8000002,1,250,i_75,,baseline,2a,Central
p_13784318,167,357,1,125,i_14,,baseline,2a,Central
p_13784318,168,641.8999996,1,125,i_203,91,control,2a,Central
p_13784318,169,460.3000002,1,125,i_29,,baseline,2a,Central
p_13784318,170,610.8000002,1,125,i_28,,baseline,2a,Central
p_13784318,171,533.3999996,0,250,i_85,,baseline,2a,Central
p_13784318,172,218.8999996,1,250,i_184,72,control,2a,Central
p_13784318,173,247.2999992,1,250,i_113,1,transposed,2a,Central
p_13784318,174,185.6000004,1,250,i_134,22,transposed,2a,Central
p_13784318,175,157.3999996,1,250,i_183,71,control,2a,Central
p_13784318,176,66.69999981,1,250,i_140,28,transposed,2a,Central
p_13784318,177,338.4000006,1,250,i_76,,baseline,2a,Central
p_13784318,178,257.7999992,1,125,i_47,,baseline,2a,Central
p_13784318,179,304.5,1,125,i_44,,baseline,2a,Central
p_13784318,180,754,1,125,i_209,97,control,2a,Central
p_13784318,181,936,1,125,i_22,,baseline,2a,Central
p_13784318,182,988.9000006,1,125,i_221,109,control,2a,Central
p_13784318,183,244.6999998,1,250,i_122,10,transposed,2a,Central
p_13784318,184,295.6000004,1,125,i_19,,baseline,2a,Central
p_13784318,185,416.0999994,0,125,i_158,46,transposed,2a,Central
p_13784318,186,258.2000008,1,250,i_172,60,control,2a,Central
p_13784318,187,366.6999998,0,125,i_166,54,transposed,2a,Central
p_13784318,188,18.29999924,1,250,i_131,19,transposed,2a,Central
p_13784318,189,400.1999998,1,125,i_46,,baseline,2a,Central
p_13784318,190,543.5,0,125,i_162,50,transposed,2a,Central
p_13784318,191,781.6000004,1,125,i_2,,baseline,2a,Central
p_13784318,192,299.5,1,250,i_192,80,control,2a,Central
p_13784318,193,276.3000002,1,250,i_120,8,transposed,2a,Central
p_13784318,194,422.6999998,0,250,i_87,,baseline,2a,Central
p_13784318,195,482.3999996,1,125,i_18,,baseline,2a,Central
p_13784318,196,378.5999994,0,125,i_154,42,transposed,2a,Central
p_13784318,197,566.8000002,1,125,i_201,89,control,2a,Central
p_13784318,198,289.6999998,1,250,i_126,14,transposed,2a,Central
p_13784318,199,973.4000006,1,250,i_83,,baseline,2a,Central
p_13784318,200,4.800000191,1,250,i_114,2,transposed,2a,Central
p_13784318,201,836.5,1,250,i_89,,baseline,2a,Central
p_13784318,202,422.3999996,1,125,i_10,,baseline,2a,Central
p_13784318,203,525.2000008,1,250,i_123,11,transposed,2a,Central
p_13784318,204,299.1999998,1,250,i_58,,baseline,2a,Central
p_13784318,205,245,1,250,i_121,9,transposed,2a,Central
p_13784318,206,209.6999998,1,250,i_110,,baseline,2a,Central
p_13784318,207,286.1999998,0,125,i_156,44,transposed,2a,Central
p_13784318,208,278.2000008,1,125,i_26,,baseline,2a,Central
p_13784318,209,751.1999998,1,250,i_70,,baseline,2a,Central
p_13784318,210,375.3000002,1,250,i_171,59,control,2a,Central
p_13784318,211,311.4000006,1,250,i_103,,baseline,2a,Central
p_13784318,212,333.4000006,0,125,i_207,95,control,2a,Central
p_13784318,213,272.5,1,125,i_24,,baseline,2a,Central
p_13784318,214,851.6000004,1,125,i_50,,baseline,2a,Central
p_13784318,215,257.1999998,1,125,i_1,,baseline,2a,Central
p_13784318,216,74.89999962,1,250,i_189,77,control,2a,Central
p_13784318,217,348.6000004,1,250,i_88,,baseline,2a,Central
p_13784318,218,299.1999998,1,250,i_177,65,control,2a,Central
p_13784318,219,195.8000002,1,250,i_99,,baseline,2a,Central
p_13784318,220,1074.299999,0,250,i_106,,baseline,2a,Central
p_13784318,221,270.3999996,1,250,i_169,57,control,2a,Central
p_13784318,222,470.5999994,0,125,i_167,55,transposed,2a,Central
p_13784318,223,315.6999998,1,250,i_127,15,transposed,2a,Central
p_13784318,224,543,0,125,i_202,90,control,2a,Central
p_13784322,1,315.6,1,250,i_12,,baseline,2a,Central
p_13784322,2,932.8,1,125,i_91,,baseline,2a,Central
p_13784322,3,510.3,1,125,i_79,,baseline,2a,Central
p_13784322,4,631.1,1,125,i_100,,baseline,2a,Central
p_13784322,5,459.6,1,250,i_26,,baseline,2a,Central
p_13784322,6,478.3,1,250,i_165,53,control,2a,Central
p_13784322,7,365.5,1,250,i_25,,baseline,2a,Central
p_13784322,8,840.1,0,125,i_193,81,transposed,2a,Central
p_13784322,9,393.9,1,250,i_215,103,transposed,2a,Central
p_13784322,10,415.6,1,250,i_4,,baseline,2a,Central
p_13784322,11,458.7,1,125,i_190,78,transposed,2a,Central
p_13784322,12,994.8,1,250,i_19,,baseline,2a,Central
p_13784322,13,435.8,1,125,i_66,,baseline,2a,Central
p_13784322,14,450.1,1,125,i_109,,baseline,2a,Central
p_13784322,15,689.6,1,250,i_35,,baseline,2a,Central
p_13784322,16,897.6,0,125,i_92,,baseline,2a,Central
p_13784322,17,957.3,1,125,i_140,28,control,2a,Central
p_13784322,18,490.4,1,125,i_70,,baseline,2a,Central
p_13784322,19,533.1,1,250,i_143,31,control,2a,Central
p_13784322,20,755.7,1,125,i_64,,baseline,2a,Central
p_13784322,21,1454,1,125,i_127,15,control,2a,Central
p_13784322,22,425.8,1,250,i_158,46,control,2a,Central
p_13784322,23,412,1,250,i_34,,baseline,2a,Central
p_13784322,24,451.6,1,125,i_93,,baseline,2a,Central
p_13784322,25,1375.3,1,250,i_201,89,transposed,2a,Central
p_13784322,26,449.1,1,250,i_39,,baseline,2a,Central
p_13784322,27,1196.9,0,250,i_204,92,transposed,2a,Central
p_13784322,28,437.9,1,250,i_147,35,control,2a,Central
p_13784322,29,379.1,1,125,i_63,,baseline,2a,Central
p_13784322,30,692.5,1,125,i_73,,baseline,2a,Central
p_13784322,31,471.5,1,125,i_80,,baseline,2a,Central
p_13784322,32,1103.5,1,125,i_179,67,transposed,2a,Central
p_13784322,33,372.4,1,250,i_33,,baseline,2a,Central
p_13784322,34,968.7,1,250,i_197,85,transposed,2a,Central
p_13784322,35,2236.2,0,125,i_75,,baseline,2a,Central
p_13784322,36,853.3,1,250,i_22,,baseline,2a,Central
p_13784322,37,547.9,1,250,i_205,93,transposed,2a,Central
p_13784322,38,418.5,1,250,i_53,,baseline,2a,Central
p_13784322,39,426.4,1,125,i_98,,baseline,2a,Central
p_13784322,40,568.5,1,125,i_84,,baseline,2a,Central
p_13784322,41,915.3,0,125,i_133,21,control,2a,Central
p_13784322,42,442.5,1,125,i_118,6,control,2a,Central
p_13784322,43,461.2,1,250,i_203,91,transposed,2a,Central
p_13784322,44,522.2,0,250,i_222,110,transposed,2a,Central
p_13784322,45,1040,1,250,i_207,95,transposed,2a,Central
p_13784322,46,420.3,1,125,i_60,,baseline,2a,Central
p_13784322,47,357.9,1,250,i_155,43,control,2a,Central
p_13784322,48,495.1,1,125,i_82,,baseline,2a,Central
p_13784322,49,494.8,1,125,i_104,,baseline,2a,Central
p_13784322,50,707.3,1,125,i_74,,baseline,2a,Central
p_13784322,51,295.2,1,250,i_9,,baseline,2a,Central
p_13784322,52,523.1,1,125,i_131,19,control,2a,Central
p_13784322,53,1047.5,0,125,i_85,,baseline,2a,Central
p_13784322,54,677.7,1,250,i_11,,baseline,2a,Central
p_13784322,55,461.3,1,250,i_7,,baseline,2a,Central
p_13784322,56,654.8,1,125,i_88,,baseline,2a,Central
p_13784322,57,407.6,1,125,i_96,,baseline,2a,Central
p_13784322,58,452.4,1,250,i_20,,baseline,2a,Central
p_13784322,59,610.1,1,250,i_202,90,transposed,2a,Central
p_13784322,60,369.5,1,250,i_218,106,transposed,2a,Central
p_13784322,61,621.5,1,125,i_113,1,control,2a,Central
p_13784322,62,574.7,1,125,i_124,12,control,2a,Central
p_13784322,63,1046.5,1,125,i_108,,baseline,2a,Central
p_13784322,64,923.7,0,125,i_195,83,transposed,2a,Central
p_13784322,65,418.5,0,250,i_21,,baseline,2a,Central
p_13784322,66,468.9,1,250,i_23,,baseline,2a,Central
p_13784322,67,379.9,1,250,i_149,37,control,2a,Central
p_13784322,68,855.9,0,125,i_119,7,control,2a,Central
p_13784322,69,405.5,0,125,i_135,23,control,2a,Central
p_13784322,70,1787.9,0,125,i_185,73,transposed,2a,Central
p_13784322,71,398.6,1,250,i_198,86,transposed,2a,Central
p_13784322,72,2236,1,250,i_166,54,control,2a,Central
p_13784322,73,611.3,0,125,i_169,57,transposed,2a,Central
p_13784322,74,503.5,1,125,i_177,65,transposed,2a,Central
p_13784322,75,1355.8,1,250,i_6,,baseline,2a,Central
p_13784322,76,600.8,1,250,i_13,,baseline,2a,Central
p_13784322,77,1102.8,0,125,i_136,24,control,2a,Central
p_13784322,78,1242.5,0,250,i_54,,baseline,2a,Central
p_13784322,79,404,1,250,i_45,,baseline,2a,Central
p_13784322,80,396.4,1,250,i_150,38,control,2a,Central
p_13784322,81,363.1,1,125,i_65,,baseline,2a,Central
p_13784322,82,900,1,250,i_168,56,control,2a,Central
p_13784322,83,543.4,1,250,i_47,,baseline,2a,Central
p_13784322,84,450,1,250,i_49,,baseline,2a,Central
p_13784322,85,1114.1,1,250,i_41,,baseline,2a,Central
p_13784322,86,728.3,0,125,i_188,76,transposed,2a,Central
p_13784322,87,1073,1,125,i_57,,baseline,2a,Central
p_13784322,88,335.7,1,250,i_146,34,control,2a,Central
p_13784322,89,468.9,1,250,i_154,42,control,2a,Central
p_13784322,90,374.8,1,250,i_2,,baseline,2a,Central
p_13784322,91,341.9,1,125,i_103,,baseline,2a,Central
p_13784322,92,896.6,1,125,i_97,,baseline,2a,Central
p_13784322,93,1052.8,1,250,i_223,111,transposed,2a,Central
p_13784322,94,643.8,1,125,i_111,,baseline,2a,Central
p_13784322,95,296.9,1,250,i_32,,baseline,2a,Central
p_13784322,96,1013,0,250,i_167,55,control,2a,Central
p_13784322,97,325.2,1,250,i_213,101,transposed,2a,Central
p_13784322,98,463.1,1,250,i_142,30,control,2a,Central
p_13784322,99,337.9,1,250,i_214,102,transposed,2a,Central
p_13784322,100,274.9,1,250,i_14,,baseline,2a,Central
p_13784322,101,399.9,0,125,i_180,68,transposed,2a,Central
p_13784322,102,526,0,125,i_178,66,transposed,2a,Central
p_13784322,103,628,0,250,i_17,,baseline,2a,Central
p_13784322,104,275,1,250,i_40,,baseline,2a,Central
p_13784322,105,1087,1,125,i_94,,baseline,2a,Central
p_13784322,106,760.5,0,125,i_191,79,transposed,2a,Central
p_13784322,107,1779.3,1,125,i_125,13,control,2a,Central
p_13784322,108,701.1,1,125,i_90,,baseline,2a,Central
p_13784322,109,439.2,1,125,i_68,,baseline,2a,Central
p_13784322,110,388.2,1,125,i_81,,baseline,2a,Central
p_13784322,111,462.4,0,125,i_139,27,control,2a,Central
p_13784322,112,339.2,1,250,i_36,,baseline,2a,Central
p_13784322,113,740.7,0,125,i_134,22,control,2a,Central
p_13784322,114,657.1,0,125,i_173,61,transposed,2a,Central
p_13784322,115,950.3,0,250,i_212,100,transposed,2a,Central
p_13784322,116,678,1,125,i_78,,baseline,2a,Central
p_13784322,117,1180.1,1,125,i_175,63,transposed,2a,Central
p_13784322,118,1402.5,1,125,i_69,,baseline,2a,Central
p_13784322,119,324.3,1,250,i_209,97,transposed,2a,Central
p_13784322,120,410.9,1,250,i_151,39,control,2a,Central
p_13784322,121,1135.8,1,125,i_182,70,transposed,2a,Central
p_13784322,122,978,1,125,i_107,,baseline,2a,Central
p_13784322,123,1614.1,1,125,i_137,25,control,2a,Central
p_13784322,124,543.8,0,250,i_200,88,transposed,2a,Central
p_13784322,125,423.8,1,250,i_216,104,transposed,2a,Central
p_13784322,126,935,1,125,i_176,64,transposed,2a,Central
p_13784322,127,1860.3,1,125,i_170,58,transposed,2a,Central
p_13784322,128,2241.1,0,125,i_114,2,control,2a,Central
p_13784322,129,628.4,0,125,i_117,5,control,2a,Central
p_13784322,130,944.7,1,125,i_87,,baseline,2a,Central
p_13784322,131,1987,1,125,i_105,,baseline,2a,Central
p_13784322,132,2061.1,0,125,i_184,72,transposed,2a,Central
p_13784322,133,997.9,1,125,i_59,,baseline,2a,Central
p_13784322,134,1232.2,1,250,i_30,,baseline,2a,Central
p_13784322,135,275.2,0,250,i_219,107,transposed,2a,Central
p_13784322,136,447.6,1,125,i_86,,baseline,2a,Central
p_13784322,137,354.5,1,250,i_159,47,control,2a,Central
p_13784322,138,396.6,1,250,i_152,40,control,2a,Central
p_13784322,139,305.1,1,250,i_37,,baseline,2a,Central
p_13784322,140,350.7,0,125,i_172,60,transposed,2a,Central
p_13784322,141,604.2,0,125,i_115,3,control,2a,Central
p_13784322,142,431.5,1,250,i_18,,baseline,2a,Central
p_13784322,143,219.8,1,250,i_15,,baseline,2a,Central
p_13784322,144,862.2,1,125,i_83,,baseline,2a,Central
p_13784322,145,537.7,0,125,i_130,18,control,2a,Central
p_13784322,146,505.3,1,125,i_58,,baseline,2a,Central
p_13784322,147,366.3,1,250,i_145,33,control,2a,Central
p_13784322,148,599.2,1,125,i_72,,baseline,2a,Central
p_13784322,149,943,0,125,i_128,16,control,2a,Central
p_13784322,150,772.8,1,125,i_120,8,control,2a,Central
p_13784322,151,453.8,1,250,i_156,44,control,2a,Central
p_13784322,152,1143.8,1,125,i_116,4,control,2a,Central
p_13784322,153,420.2,1,125,i_76,,baseline,2a,Central
p_13784322,154,325,0,125,i_181,69,transposed,2a,Central
p_13784322,155,672,0,125,i_102,,baseline,2a,Central
p_13784322,156,335.5,1,250,i_10,,baseline,2a,Central
p_13784322,157,421.2,1,125,i_171,59,transposed,2a,Central
p_13784322,158,679.6,1,125,i_67,,baseline,2a,Central
p_13784322,159,290.1,1,250,i_161,49,control,2a,Central
p_13784322,160,289.9,1,125,i_186,74,transposed,2a,Central
p_13784322,161,715,1,250,i_28,,baseline,2a,Central
p_13784322,162,401.1,1,250,i_55,,baseline,2a,Central
p_13784322,163,415.3,1,250,i_46,,baseline,2a,Central
p_13784322,164,1256.3,1,125,i_61,,baseline,2a,Central
p_13784322,165,364.4,1,250,i_164,52,control,2a,Central
p_13784322,166,493.3,1,250,i_50,,baseline,2a,Central
p_13784322,167,406,1,125,i_99,,baseline,2a,Central
p_13784322,168,1502.3,1,125,i_101,,baseline,2a,Central
p_13784322,169,500.9,0,125,i_192,80,transposed,2a,Central
p_13784322,170,959,1,125,i_129,17,control,2a,Central
p_13784322,171,1207.5,1,250,i_1,,baseline,2a,Central
p_13784322,172,262.4,1,250,i_5,,baseline,2a,Central
p_13784322,173,433.1,1,250,i_220,108,transposed,2a,Central
p_13784322,174,697.4,1,250,i_38,,baseline,2a,Central
p_13784322,175,724.2,1,250,i_210,98,transposed,2a,Central
p_13784322,176,814.7,1,125,i_132,20,control,2a,Central
p_13784322,177,379.3,1,250,i_148,36,control,2a,Central
p_13784322,178,361.7,1,250,i_3,,baseline,2a,Central
p_13784322,179,418.4,0,125,i_121,9,control,2a,Central
p_13784322,180,341.7,1,125,i_106,,baseline,2a,Central
p_13784322,181,384.4,1,250,i_42,,baseline,2a,Central
p_13784322,182,1209.1,0,250,i_221,109,transposed,2a,Central
p_13784322,183,584.3,1,125,i_95,,baseline,2a,Central
p_13784322,184,1685.1,1,125,i_174,62,transposed,2a,Central
p_13784322,185,430.2,1,250,i_44,,baseline,2a,Central
p_13784322,186,2532,1,125,i_110,,baseline,2a,Central
p_13784322,187,380.6,1,250,i_163,51,control,2a,Central
p_13784322,188,495.3,1,250,i_157,45,control,2a,Central
p_13784322,189,973,0,250,i_141,29,control,2a,Central
p_13784322,190,987,1,250,i_43,,baseline,2a,Central
p_13784322,191,448.1,0,125,i_189,77,transposed,2a,Central
p_13784322,192,828.9,1,250,i_217,105,transposed,2a,Central
p_13784322,193,397.9,1,250,i_24,,baseline,2a,Central
p_13784322,194,560.6,0,250,i_160,48,control,2a,Central
p_13784322,195,575.6,1,250,i_56,,baseline,2a,Central
p_13784322,196,361.8,1,125,i_77,,baseline,2a,Central
p_13784322,197,335.8,1,250,i_153,41,control,2a,Central
p_13784322,198,317,1,250,i_8,,baseline,2a,Central
p_13784322,199,691.7,0,125,i_196,84,transposed,2a,Central
p_13784322,200,580.8,1,250,i_144,32,control,2a,Central
p_13784322,201,403.9,1,250,i_224,112,transposed,2a,Central
p_13784322,202,394.3,1,250,i_52,,baseline,2a,Central
p_13784322,203,615.7,1,250,i_211,99,transposed,2a,Central
p_13784322,204,1191.5,0,250,i_199,87,transposed,2a,Central
p_13784322,205,486.3,0,125,i_122,10,control,2a,Central
p_13784322,206,442.4,1,250,i_206,94,transposed,2a,Central
p_13784322,207,1839.8,1,125,i_138,26,control,2a,Central
p_13784322,208,874.4,1,125,i_89,,baseline,2a,Central
p_13784322,209,1178.5,1,250,i_48,,baseline,2a,Central
p_13784322,210,353.8,0,125,i_123,11,control,2a,Central
p_13784322,211,1008.8,1,125,i_194,82,transposed,2a,Central
p_13784322,212,376.6,1,250,i_208,96,transposed,2a,Central
p_13784322,213,146.8,1,250,i_27,,baseline,2a,Central
p_13784322,214,386.6,1,250,i_31,,baseline,2a,Central
p_13784322,215,817.7,1,250,i_162,50,control,2a,Central
p_13784322,216,389.1,1,250,i_29,,baseline,2a,Central
p_13784322,217,457.5,1,125,i_62,,baseline,2a,Central
p_13784322,218,300.2,1,250,i_51,,baseline,2a,Central
p_13784322,219,443.9,0,125,i_187,75,transposed,2a,Central
p_13784322,220,713.9,0,125,i_126,14,control,2a,Central
p_13784322,221,545.9,1,125,i_183,71,transposed,2a,Central
p_13784322,222,478.9,1,250,i_16,,baseline,2a,Central
p_13784322,223,429.6,1,125,i_112,,baseline,2a,Central
p_13784322,224,536.6,1,125,i_71,,baseline,2a,Central
p_13784325,1,998.5,1,250,i_186,74,control,2a,Central
p_13784325,2,535.8,1,250,i_181,69,control,2a,Central
p_13784325,3,565.6,1,250,i_83,,baseline,2a,Central
p_13784325,4,978.8,0,125,i_56,,baseline,2a,Central
p_13784325,5,702.8,1,125,i_5,,baseline,2a,Central
p_13784325,6,967.3,1,125,i_154,42,transposed,2a,Central
p_13784325,7,647.4,1,250,i_102,,baseline,2a,Central
p_13784325,8,717.9,1,125,i_201,89,control,2a,Central
p_13784325,9,822.9,1,125,i_218,106,control,2a,Central
p_13784325,10,378.7,1,250,i_121,9,transposed,2a,Central
p_13784325,11,500.7,1,250,i_118,6,transposed,2a,Central
p_13784325,12,541,1,250,i_192,80,control,2a,Central
p_13784325,13,719.9,1,125,i_46,,baseline,2a,Central
p_13784325,14,516.1,0,125,i_155,43,transposed,2a,Central
p_13784325,15,1153.4,1,125,i_42,,baseline,2a,Central
p_13784325,16,670,1,125,i_162,50,transposed,2a,Central
p_13784325,17,470.3,1,250,i_71,,baseline,2a,Central
p_13784325,18,452.4,1,250,i_95,,baseline,2a,Central
p_13784325,19,562.6,1,250,i_111,,baseline,2a,Central
p_13784325,20,494.6,1,250,i_63,,baseline,2a,Central
p_13784325,21,591.3,1,250,i_107,,baseline,2a,Central
p_13784325,22,599.3,1,125,i_53,,baseline,2a,Central
p_13784325,23,559.7,1,125,i_29,,baseline,2a,Central
p_13784325,24,501.1,1,250,i_103,,baseline,2a,Central
p_13784325,25,288.1,1,250,i_134,22,transposed,2a,Central
p_13784325,26,900.3,1,125,i_28,,baseline,2a,Central
p_13784325,27,498.4,1,250,i_112,,baseline,2a,Central
p_13784325,28,807.4,1,125,i_165,53,transposed,2a,Central
p_13784325,29,678.3,1,125,i_197,85,control,2a,Central
p_13784325,30,538.2,1,125,i_208,96,control,2a,Central
p_13784325,31,344.8,1,250,i_174,62,control,2a,Central
p_13784325,32,333.4,1,250,i_129,17,transposed,2a,Central
p_13784325,33,435.3,1,250,i_62,,baseline,2a,Central
p_13784325,34,787.9,1,125,i_147,35,transposed,2a,Central
p_13784325,35,295.6,0,250,i_92,,baseline,2a,Central
p_13784325,36,283.9,1,250,i_171,59,control,2a,Central
p_13784325,37,524,1,125,i_33,,baseline,2a,Central
p_13784325,38,317.2,1,250,i_184,72,control,2a,Central
p_13784325,39,709.1,1,125,i_8,,baseline,2a,Central
p_13784325,40,575.4,1,125,i_26,,baseline,2a,Central
p_13784325,41,387.7,1,250,i_82,,baseline,2a,Central
p_13784325,42,317.9,1,250,i_115,3,transposed,2a,Central
p_13784325,43,344.5,1,250,i_124,12,transposed,2a,Central
p_13784325,44,566.2,1,250,i_99,,baseline,2a,Central
p_13784325,45,372.8,1,250,i_130,18,transposed,2a,Central
p_13784325,46,578.6,1,250,i_127,15,transposed,2a,Central
p_13784325,47,501.1,1,125,i_20,,baseline,2a,Central
p_13784325,48,619,1,125,i_149,37,transposed,2a,Central
p_13784325,49,877.8,1,125,i_159,47,transposed,2a,Central
p_13784325,50,457.3,1,125,i_39,,baseline,2a,Central
p_13784325,51,973.8,1,250,i_70,,baseline,2a,Central
p_13784325,52,622.8,1,125,i_43,,baseline,2a,Central
p_13784325,53,412,1,250,i_178,66,control,2a,Central
p_13784325,54,545.7,1,250,i_90,,baseline,2a,Central
p_13784325,55,426.4,1,125,i_41,,baseline,2a,Central
p_13784325,56,808,1,250,i_106,,baseline,2a,Central
p_13784325,57,286.3,1,250,i_169,57,control,2a,Central
p_13784325,58,462.8,1,250,i_105,,baseline,2a,Central
p_13784325,59,233.9,1,250,i_126,14,transposed,2a,Central
p_13784325,60,955.5,1,125,i_211,99,control,2a,Central
p_13784325,61,279.3,1,250,i_182,70,control,2a,Central
p_13784325,62,595.9,0,125,i_215,103,control,2a,Central
p_13784325,63,354.9,1,250,i_180,68,control,2a,Central
p_13784325,64,420.1,1,250,i_133,21,transposed,2a,Central
p_13784325,65,258.9,1,250,i_187,75,control,2a,Central
p_13784325,66,469,0,125,i_217,105,control,2a,Central
p_13784325,67,470.6,1,250,i_76,,baseline,2a,Central
p_13784325,68,440.8,0,125,i_221,109,control,2a,Central
p_13784325,69,453.3,1,125,i_47,,baseline,2a,Central
p_13784325,70,974.4,0,250,i_104,,baseline,2a,Central
p_13784325,71,626.9,1,125,i_204,92,control,2a,Central
p_13784325,72,304.8,0,250,i_98,,baseline,2a,Central
p_13784325,73,374.7,1,250,i_74,,baseline,2a,Central
p_13784325,74,1031,0,125,i_143,31,transposed,2a,Central
p_13784325,75,854.1,1,125,i_52,,baseline,2a,Central
p_13784325,76,984.2,1,125,i_11,,baseline,2a,Central
p_13784325,77,798,0,125,i_24,,baseline,2a,Central
p_13784325,78,352.7,1,250,i_75,,baseline,2a,Central
p_13784325,79,483.5,1,125,i_203,91,control,2a,Central
p_13784325,80,828.2,1,125,i_205,93,control,2a,Central
p_13784325,81,391.5,1,250,i_88,,baseline,2a,Central
p_13784325,82,221.4,1,250,i_114,2,transposed,2a,Central
p_13784325,83,386.7,1,250,i_89,,baseline,2a,Central
p_13784325,84,327.9,1,250,i_81,,baseline,2a,Central
p_13784325,85,408.2,1,250,i_64,,baseline,2a,Central
p_13784325,86,333.6,1,250,i_179,67,control,2a,Central
p_13784325,87,645.7,1,125,i_1,,baseline,2a,Central
p_13784325,88,646.2,1,125,i_219,107,control,2a,Central
p_13784325,89,394.2,1,250,i_94,,baseline,2a,Central
p_13784325,90,399.5,1,250,i_65,,baseline,2a,Central
p_13784325,91,469.3,1,125,i_3,,baseline,2a,Central
p_13784325,92,280.5,1,250,i_189,77,control,2a,Central
p_13784325,93,590.6,1,125,i_200,88,control,2a,Central
p_13784325,94,497.8,1,250,i_59,,baseline,2a,Central
p_13784325,95,519.2,1,125,i_27,,baseline,2a,Central
p_13784325,96,538.1,1,125,i_40,,baseline,2a,Central
p_13784325,97,593,1,125,i_209,97,control,2a,Central
p_13784325,98,661.9,1,125,i_153,41,transposed,2a,Central
p_13784325,99,400.3,1,250,i_77,,baseline,2a,Central
p_13784325,100,476.7,1,250,i_97,,baseline,2a,Central
p_13784325,101,206.7,1,250,i_139,27,transposed,2a,Central
p_13784325,102,352.8,1,250,i_108,,baseline,2a,Central
p_13784325,103,286.3,1,250,i_194,82,control,2a,Central
p_13784325,104,382,1,250,i_60,,baseline,2a,Central
p_13784325,105,348.9,1,250,i_66,,baseline,2a,Central
p_13784325,106,774,1,125,i_207,95,control,2a,Central
p_13784325,107,625.6,1,125,i_16,,baseline,2a,Central
p_13784325,108,386.4,1,250,i_73,,baseline,2a,Central
p_13784325,109,445.5,1,250,i_93,,baseline,2a,Central
p_13784325,110,762.4,1,250,i_78,,baseline,2a,Central
p_13784325,111,272.5,1,250,i_188,76,control,2a,Central
p_13784325,112,716.9,0,125,i_160,48,transposed,2a,Central
p_13784325,113,844.7,1,125,i_13,,baseline,2a,Central
p_13784325,114,859.8,0,125,i_2,,baseline,2a,Central
p_13784325,115,543.3,1,125,i_167,55,transposed,2a,Central
p_13784325,116,419,1,125,i_17,,baseline,2a,Central
p_13784325,117,350.8,1,250,i_125,13,transposed,2a,Central
p_13784325,118,916.3,1,250,i_80,,baseline,2a,Central
p_13784325,119,407.6,1,125,i_37,,baseline,2a,Central
p_13784325,120,556.4,1,125,i_222,110,control,2a,Central
p_13784325,121,545.5,1,125,i_10,,baseline,2a,Central
p_13784325,122,651.6,1,125,i_9,,baseline,2a,Central
p_13784325,123,454.2,0,125,i_7,,baseline,2a,Central
p_13784325,124,324.2,1,250,i_119,7,transposed,2a,Central
p_13784325,125,403.3,1,250,i_109,,baseline,2a,Central
p_13784325,126,530,1,250,i_57,,baseline,2a,Central
p_13784325,127,316.9,1,125,i_216,104,control,2a,Central
p_13784325,128,512.3,0,125,i_12,,baseline,2a,Central
p_13784325,129,481.2,1,125,i_144,32,transposed,2a,Central
p_13784325,130,447.6,1,125,i_54,,baseline,2a,Central
p_13784325,131,491.8,1,125,i_25,,baseline,2a,Central
p_13784325,132,516,1,250,i_185,73,control,2a,Central
p_13784325,133,304.5,1,250,i_196,84,control,2a,Central
p_13784325,134,309.5,1,250,i_175,63,control,2a,Central
p_13784325,135,462.7,1,125,i_199,87,control,2a,Central
p_13784325,136,341.2,1,250,i_195,83,control,2a,Central
p_13784325,137,924.6,0,125,i_164,52,transposed,2a,Central
p_13784325,138,441.9,1,125,i_34,,baseline,2a,Central
p_13784325,139,721.5,1,125,i_55,,baseline,2a,Central
p_13784325,140,389.8,1,250,i_67,,baseline,2a,Central
p_13784325,141,829,1,125,i_213,101,control,2a,Central
p_13784325,142,773.6,1,125,i_50,,baseline,2a,Central
p_13784325,143,673.2,1,125,i_51,,baseline,2a,Central
p_13784325,144,357.9,1,250,i_79,,baseline,2a,Central
p_13784325,145,666,1,125,i_21,,baseline,2a,Central
p_13784325,146,565.2,0,125,i_44,,baseline,2a,Central
p_13784325,147,349.6,1,250,i_170,58,control,2a,Central
p_13784325,148,661.7,1,250,i_68,,baseline,2a,Central
p_13784325,149,788.8,1,125,i_212,100,control,2a,Central
p_13784325,150,336.5,1,250,i_177,65,control,2a,Central
p_13784325,151,1646.5,1,125,i_145,33,transposed,2a,Central
p_13784325,152,1140.8,1,250,i_61,,baseline,2a,Central
p_13784325,153,1131,1,125,i_206,94,control,2a,Central
p_13784325,154,784.3,1,125,i_168,56,transposed,2a,Central
p_13784325,155,375.4,1,250,i_86,,baseline,2a,Central
p_13784325,156,582.6,0,250,i_100,,baseline,2a,Central
p_13784325,157,767.2,1,125,i_6,,baseline,2a,Central
p_13784325,158,554.9,0,125,i_142,30,transposed,2a,Central
p_13784325,159,590.6,0,250,i_58,,baseline,2a,Central
p_13784325,160,564.8,1,250,i_96,,baseline,2a,Central
p_13784325,161,610.9,1,125,i_210,98,control,2a,Central
p_13784325,162,361.8,1,250,i_131,19,transposed,2a,Central
p_13784325,163,676.8,1,125,i_163,51,transposed,2a,Central
p_13784325,164,417.3,1,250,i_110,,baseline,2a,Central
p_13784325,165,900.4,1,125,i_32,,baseline,2a,Central
p_13784325,166,658.5,1,125,i_224,112,control,2a,Central
p_13784325,167,673.8,1,125,i_157,45,transposed,2a,Central
p_13784325,168,516.3,1,250,i_113,1,transposed,2a,Central
p_13784325,169,361.6,1,125,i_166,54,transposed,2a,Central
p_13784325,170,530.6,1,250,i_138,26,transposed,2a,Central
p_13784325,171,619.6,1,250,i_191,79,control,2a,Central
p_13784325,172,366.5,1,250,i_123,11,transposed,2a,Central
p_13784325,173,836.8,1,250,i_84,,baseline,2a,Central
p_13784325,174,476.8,1,125,i_22,,baseline,2a,Central
p_13784325,175,925.2,1,125,i_148,36,transposed,2a,Central
p_13784325,176,577.8,1,125,i_202,90,control,2a,Central
p_13784325,177,880.3,1,125,i_198,86,control,2a,Central
p_13784325,178,1168.2,1,250,i_172,60,control,2a,Central
p_13784325,179,647.8,0,125,i_161,49,transposed,2a,Central
p_13784325,180,559.9,1,125,i_23,,baseline,2a,Central
p_13784325,181,541.1,1,250,i_91,,baseline,2a,Central
p_13784325,182,444.3,1,250,i_72,,baseline,2a,Central
p_13784325,183,563.9,1,125,i_49,,baseline,2a,Central
p_13784325,184,640.5,1,125,i_158,46,transposed,2a,Central
p_13784325,185,732.3,1,125,i_4,,baseline,2a,Central
p_13784325,186,761.8,1,125,i_214,102,control,2a,Central
p_13784325,187,393.8,1,250,i_193,81,control,2a,Central
p_13784325,188,530.7,1,125,i_45,,baseline,2a,Central
p_13784325,189,587.9,1,125,i_223,111,control,2a,Central
p_13784325,190,685,1,125,i_35,,baseline,2a,Central
p_13784325,191,634.6,1,250,i_122,10,transposed,2a,Central
p_13784325,192,299.9,1,250,i_117,5,transposed,2a,Central
p_13784325,193,398,1,250,i_190,78,control,2a,Central
p_13784325,194,629.9,1,125,i_156,44,transposed,2a,Central
p_13784325,195,534,0,125,i_15,,baseline,2a,Central
p_13784325,196,294,1,250,i_136,24,transposed,2a,Central
p_13784325,197,406,1,250,i_85,,baseline,2a,Central
p_13784325,198,407.7,1,250,i_101,,baseline,2a,Central
p_13784325,199,246.5,1,250,i_135,23,transposed,2a,Central
p_13784325,200,478.8,1,125,i_36,,baseline,2a,Central
p_13784325,201,470.8,0,125,i_141,29,transposed,2a,Central
p_13784325,202,513.4,1,250,i_69,,baseline,2a,Central
p_13784325,203,531.4,0,125,i_152,40,transposed,2a,Central
p_13784325,204,841.4,1,250,i_183,71,control,2a,Central
p_13784325,205,301.7,1,250,i_120,8,transposed,2a,Central
p_13784325,206,424.4,1,125,i_48,,baseline,2a,Central
p_13784325,207,390.7,1,125,i_31,,baseline,2a,Central
p_13784325,208,517.7,1,125,i_18,,baseline,2a,Central
p_13784325,209,257.1,1,250,i_140,28,transposed,2a,Central
p_13784325,210,653.9,1,125,i_220,108,control,2a,Central
p_13784325,211,247,1,250,i_137,25,transposed,2a,Central
p_13784325,212,423.6,0,125,i_146,34,transposed,2a,Central
p_13784325,213,282.8,1,250,i_116,4,transposed,2a,Central
p_13784325,214,351.3,1,250,i_87,,baseline,2a,Central
p_13784325,215,472.7,1,125,i_19,,baseline,2a,Central
p_13784325,216,756.1,1,125,i_14,,baseline,2a,Central
p_13784325,217,316,1,250,i_128,16,transposed,2a,Central
p_13784325,218,526.8,0,125,i_151,39,transposed,2a,Central
p_13784325,219,605.9,1,125,i_30,,baseline,2a,Central
p_13784325,220,431.9,1,125,i_38,,baseline,2a,Central
p_13784325,221,535.4,0,125,i_150,38,transposed,2a,Central
p_13784325,222,433.5,1,250,i_173,61,control,2a,Central
p_13784325,223,668.3,1,250,i_176,64,control,2a,Central
p_13784325,224,248.3,1,250,i_132,20,transposed,2a,Central
p_13790354,1,820,1,250,i_224,112,transposed,2a,Central
p_13790354,2,900,0,125,i_183,71,transposed,2a,Central
p_13790354,3,1380,1,125,i_137,25,control,2a,Central
p_13790354,4,559,1,250,i_158,46,control,2a,Central
p_13790354,5,582,1,125,i_127,15,control,2a,Central
p_13790354,6,920,0,250,i_214,102,transposed,2a,Central
p_13790354,7,438,1,250,i_143,31,control,2a,Central
p_13790354,8,294,1,250,i_51,,baseline,2a,Central
p_13790354,9,304,1,250,i_13,,baseline,2a,Central
p_13790354,10,649,1,125,i_181,69,transposed,2a,Central
p_13790354,11,1169,0,125,i_176,64,transposed,2a,Central
p_13790354,12,800,0,250,i_56,,baseline,2a,Central
p_13790354,13,560,1,125,i_85,,baseline,2a,Central
p_13790354,14,776,1,250,i_36,,baseline,2a,Central
p_13790354,15,564,1,125,i_77,,baseline,2a,Central
p_13790354,16,891,1,125,i_115,3,control,2a,Central
p_13790354,17,563,1,125,i_112,,baseline,2a,Central
p_13790354,18,838,1,250,i_55,,baseline,2a,Central
p_13790354,19,718,1,125,i_123,11,control,2a,Central
p_13790354,20,3468,1,250,i_29,,baseline,2a,Central
p_13790354,21,706,0,125,i_75,,baseline,2a,Central
p_13790354,22,2987,1,250,i_48,,baseline,2a,Central
p_13790354,23,478,0,125,i_83,,baseline,2a,Central
p_13790354,24,499,1,250,i_21,,baseline,2a,Central
p_13790354,25,891,0,125,i_111,,baseline,2a,Central
p_13790354,26,468,0,250,i_221,109,transposed,2a,Central
p_13790354,27,931,1,125,i_189,77,transposed,2a,Central
p_13790354,28,471,1,250,i_17,,baseline,2a,Central
p_13790354,29,385,1,250,i_8,,baseline,2a,Central
p_13790354,30,1040,0,250,i_204,92,transposed,2a,Central
p_13790354,31,500,0,250,i_209,97,transposed,2a,Central
p_13790354,32,364,1,250,i_2,,baseline,2a,Central
p_13790354,33,751,1,250,i_149,37,control,2a,Central
p_13790354,34,350,1,125,i_105,,baseline,2a,Central
p_13790354,35,1047,1,250,i_30,,baseline,2a,Central
p_13790354,36,480,0,125,i_170,58,transposed,2a,Central
p_13790354,37,644,1,125,i_78,,baseline,2a,Central
p_13790354,38,464,1,125,i_121,9,control,2a,Central
p_13790354,39,502,1,125,i_67,,baseline,2a,Central
p_13790354,40,1088,0,125,i_169,57,transposed,2a,Central
p_13790354,41,290,1,250,i_6,,baseline,2a,Central
p_13790354,42,546,1,250,i_145,33,control,2a,Central
p_13790354,43,483,1,250,i_18,,baseline,2a,Central
p_13790354,44,591,1,125,i_96,,baseline,2a,Central
p_13790354,45,363,0,250,i_207,95,transposed,2a,Central
p_13790354,46,834,0,125,i_191,79,transposed,2a,Central
p_13790354,47,448,1,125,i_93,,baseline,2a,Central
p_13790354,48,595,1,250,i_24,,baseline,2a,Central
p_13790354,49,779,1,125,i_71,,baseline,2a,Central
p_13790354,50,1054,1,250,i_165,53,control,2a,Central
p_13790354,51,358,1,250,i_198,86,transposed,2a,Central
p_13790354,52,862,1,250,i_168,56,control,2a,Central
p_13790354,53,847,1,125,i_124,12,control,2a,Central
p_13790354,54,780,0,250,i_197,85,transposed,2a,Central
p_13790354,55,385,1,125,i_81,,baseline,2a,Central
p_13790354,56,1025,0,125,i_140,28,control,2a,Central
p_13790354,57,1024,0,125,i_192,80,transposed,2a,Central
p_13790354,58,345,1,250,i_37,,baseline,2a,Central
p_13790354,59,483,0,250,i_46,,baseline,2a,Central
p_13790354,60,567,0,125,i_173,61,transposed,2a,Central
p_13790354,61,325,1,250,i_35,,baseline,2a,Central
p_13790354,62,552,0,125,i_131,19,control,2a,Central
p_13790354,63,602,1,250,i_12,,baseline,2a,Central
p_13790354,64,321,1,250,i_201,89,transposed,2a,Central
p_13790354,65,255,1,250,i_39,,baseline,2a,Central
p_13790354,66,609,1,125,i_122,10,control,2a,Central
p_13790354,67,614,1,125,i_90,,baseline,2a,Central
p_13790354,68,362,0,125,i_194,82,transposed,2a,Central
p_13790354,69,382,0,250,i_202,90,transposed,2a,Central
p_13790354,70,485,1,125,i_109,,baseline,2a,Central
p_13790354,71,169,1,250,i_148,36,control,2a,Central
p_13790354,72,1264,1,125,i_135,23,control,2a,Central
p_13790354,73,294,1,250,i_7,,baseline,2a,Central
p_13790354,74,384,1,125,i_102,,baseline,2a,Central
p_13790354,75,796,1,125,i_91,,baseline,2a,Central
p_13790354,76,348,0,125,i_178,66,transposed,2a,Central
p_13790354,77,1192,1,250,i_14,,baseline,2a,Central
p_13790354,78,444,0,250,i_203,91,transposed,2a,Central
p_13790354,79,481,0,125,i_73,,baseline,2a,Central
p_13790354,80,534,1,125,i_82,,baseline,2a,Central
p_13790354,81,541,1,125,i_116,4,control,2a,Central
p_13790354,82,569,0,250,i_205,93,transposed,2a,Central
p_13790354,83,787,0,250,i_200,88,transposed,2a,Central
p_13790354,84,730,1,250,i_53,,baseline,2a,Central
p_13790354,85,618,1,250,i_43,,baseline,2a,Central
p_13790354,86,613,1,125,i_133,21,control,2a,Central
p_13790354,87,925,0,250,i_206,94,transposed,2a,Central
p_13790354,88,364,1,125,i_103,,baseline,2a,Central
p_13790354,89,579,1,125,i_62,,baseline,2a,Central
p_13790354,90,1123,0,125,i_125,13,control,2a,Central
p_13790354,91,448,1,125,i_99,,baseline,2a,Central
p_13790354,92,936,1,250,i_163,51,control,2a,Central
p_13790354,93,597,0,125,i_120,8,control,2a,Central
p_13790354,94,466,0,125,i_117,5,control,2a,Central
p_13790354,95,455,1,250,i_152,40,control,2a,Central
p_13790354,96,337,1,250,i_153,41,control,2a,Central
p_13790354,97,602,1,125,i_70,,baseline,2a,Central
p_13790354,98,1712,1,250,i_28,,baseline,2a,Central
p_13790354,99,1256,0,125,i_59,,baseline,2a,Central
p_13790354,100,870,0,250,i_26,,baseline,2a,Central
p_13790354,101,2116,1,125,i_129,17,control,2a,Central
p_13790354,102,538,0,250,i_166,54,control,2a,Central
p_13790354,103,247,1,250,i_20,,baseline,2a,Central
p_13790354,104,4366,0,250,i_25,,baseline,2a,Central
p_13790354,105,609,1,125,i_79,,baseline,2a,Central
p_13790354,106,1175,1,250,i_50,,baseline,2a,Central
p_13790354,107,399,1,250,i_16,,baseline,2a,Central
p_13790354,108,370,0,125,i_118,6,control,2a,Central
p_13790354,109,779,0,250,i_164,52,control,2a,Central
p_13790354,110,735,0,125,i_126,14,control,2a,Central
p_13790354,111,365,1,250,i_49,,baseline,2a,Central
p_13790354,112,595,0,125,i_171,59,transposed,2a,Central
p_13790354,113,869,1,250,i_151,39,control,2a,Central
p_13790354,114,821,0,125,i_177,65,transposed,2a,Central
p_13790354,115,288,0,250,i_154,42,control,2a,Central
p_13790354,116,472,1,250,i_162,50,control,2a,Central
p_13790354,117,525,0,125,i_195,83,transposed,2a,Central
p_13790354,118,685,0,250,i_211,99,transposed,2a,Central
p_13790354,119,345,0,250,i_216,104,transposed,2a,Central
p_13790354,120,444,1,125,i_84,,baseline,2a,Central
p_13790354,121,314,1,125,i_66,,baseline,2a,Central
p_13790354,122,506,1,250,i_144,32,control,2a,Central
p_13790354,123,488,1,250,i_40,,baseline,2a,Central
p_13790354,124,1608,1,125,i_175,63,transposed,2a,Central
p_13790354,125,3339,1,125,i_98,,baseline,2a,Central
p_13790354,126,460,1,250,i_54,,baseline,2a,Central
p_13790354,127,415,1,250,i_33,,baseline,2a,Central
p_13790354,128,527,1,125,i_101,,baseline,2a,Central
p_13790354,129,888,1,250,i_210,98,transposed,2a,Central
p_13790354,130,687,1,125,i_106,,baseline,2a,Central
p_13790354,131,417,0,250,i_218,106,transposed,2a,Central
p_13790354,132,711,1,125,i_113,1,control,2a,Central
p_13790354,133,776,1,125,i_128,16,control,2a,Central
p_13790354,134,655,1,125,i_139,27,control,2a,Central
p_13790354,135,471,1,125,i_97,,baseline,2a,Central
p_13790354,136,269,1,250,i_42,,baseline,2a,Central
p_13790354,137,480,0,250,i_208,96,transposed,2a,Central
p_13790354,138,587,0,125,i_132,20,control,2a,Central
p_13790354,139,670,1,125,i_61,,baseline,2a,Central
p_13790354,140,418,1,250,i_15,,baseline,2a,Central
p_13790354,141,536,1,250,i_44,,baseline,2a,Central
p_13790354,142,471,1,250,i_142,30,control,2a,Central
p_13790354,143,395,1,250,i_160,48,control,2a,Central
p_13790354,144,310,1,250,i_10,,baseline,2a,Central
p_13790354,145,325,1,125,i_60,,baseline,2a,Central
p_13790354,146,308,0,125,i_190,78,transposed,2a,Central
p_13790354,147,309,1,250,i_147,35,control,2a,Central
p_13790354,148,320,1,125,i_57,,baseline,2a,Central
p_13790354,149,275,1,250,i_19,,baseline,2a,Central
p_13790354,150,326,0,125,i_184,72,transposed,2a,Central
p_13790354,151,448,1,125,i_104,,baseline,2a,Central
p_13790354,152,345,0,125,i_187,75,transposed,2a,Central
p_13790354,153,418,0,125,i_172,60,transposed,2a,Central
p_13790354,154,611,0,125,i_179,67,transposed,2a,Central
p_13790354,155,206,1,250,i_45,,baseline,2a,Central
p_13790354,156,629,1,125,i_114,2,control,2a,Central
p_13790354,157,529,1,250,i_9,,baseline,2a,Central
p_13790354,158,397,1,125,i_80,,baseline,2a,Central
p_13790354,159,451,1,250,i_23,,baseline,2a,Central
p_13790354,160,256,1,250,i_1,,baseline,2a,Central
p_13790354,161,193,0,250,i_161,49,control,2a,Central
p_13790354,162,467,1,125,i_94,,baseline,2a,Central
p_13790354,163,360,1,250,i_38,,baseline,2a,Central
p_13790354,164,267,1,125,i_108,,baseline,2a,Central
p_13790354,165,47,1,250,i_31,,baseline,2a,Central
p_13790354,166,387,1,250,i_146,34,control,2a,Central
p_13790354,167,353,0,125,i_188,76,transposed,2a,Central
p_13790354,168,274,1,250,i_22,,baseline,2a,Central
p_13790354,169,365,0,250,i_215,103,transposed,2a,Central
p_13790354,170,400,0,125,i_92,,baseline,2a,Central
p_13790354,171,435,1,250,i_167,55,control,2a,Central
p_13790354,172,1104,1,250,i_27,,baseline,2a,Central
p_13790354,173,372,0,250,i_220,108,transposed,2a,Central
p_13790354,174,297,0,250,i_219,107,transposed,2a,Central
p_13790354,175,272,0,125,i_134,22,control,2a,Central
p_13790354,176,274,0,250,i_155,43,control,2a,Central
p_13790354,177,266,1,250,i_11,,baseline,2a,Central
p_13790354,178,895,1,125,i_74,,baseline,2a,Central
p_13790354,179,282,1,125,i_69,,baseline,2a,Central
p_13790354,180,533,1,125,i_107,,baseline,2a,Central
p_13790354,181,444,1,125,i_68,,baseline,2a,Central
p_13790354,182,475,1,125,i_76,,baseline,2a,Central
p_13790354,183,523,0,125,i_174,62,transposed,2a,Central
p_13790354,184,765,1,125,i_136,24,control,2a,Central
p_13790354,185,492,1,125,i_193,81,transposed,2a,Central
p_13790354,186,365,1,125,i_64,,baseline,2a,Central
p_13790354,187,366,1,125,i_86,,baseline,2a,Central
p_13790354,188,324,1,125,i_89,,baseline,2a,Central
p_13790354,189,271,1,125,i_72,,baseline,2a,Central
p_13790354,190,487,0,125,i_186,74,transposed,2a,Central
p_13790354,191,317,1,250,i_41,,baseline,2a,Central
p_13790354,192,960,1,250,i_199,87,transposed,2a,Central
p_13790354,193,608,1,125,i_100,,baseline,2a,Central
p_13790354,194,272,1,250,i_3,,baseline,2a,Central
p_13790354,195,267,1,125,i_87,,baseline,2a,Central
p_13790354,196,86,1,250,i_212,100,transposed,2a,Central
p_13790354,197,193,1,250,i_141,29,control,2a,Central
p_13790354,198,237,1,250,i_32,,baseline,2a,Central
p_13790354,199,271,1,250,i_5,,baseline,2a,Central
p_13790354,200,491,0,125,i_110,,baseline,2a,Central
p_13790354,201,571,1,125,i_138,26,control,2a,Central
p_13790354,202,35,1,250,i_156,44,control,2a,Central
p_13790354,203,492,1,250,i_223,111,transposed,2a,Central
p_13790354,204,786,1,250,i_47,,baseline,2a,Central
p_13790354,205,601,0,125,i_63,,baseline,2a,Central
p_13790354,206,405,1,250,i_159,47,control,2a,Central
p_13790354,207,336,1,250,i_4,,baseline,2a,Central
p_13790354,208,252,1,250,i_34,,baseline,2a,Central
p_13790354,209,341,1,125,i_182,70,transposed,2a,Central
p_13790354,210,238,1,250,i_213,101,transposed,2a,Central
p_13790354,211,710,1,125,i_58,,baseline,2a,Central
p_13790354,212,531,1,125,i_119,7,control,2a,Central
p_13790354,213,489,1,125,i_95,,baseline,2a,Central
p_13790354,214,113,1,250,i_217,105,transposed,2a,Central
p_13790354,215,312,0,125,i_185,73,transposed,2a,Central
p_13790354,216,549,1,125,i_88,,baseline,2a,Central
p_13790354,217,563,0,125,i_180,68,transposed,2a,Central
p_13790354,218,441,1,125,i_130,18,control,2a,Central
p_13790354,219,246,1,250,i_150,38,control,2a,Central
p_13790354,220,651,0,125,i_196,84,transposed,2a,Central
p_13790354,221,335,1,250,i_157,45,control,2a,Central
p_13790354,222,959,1,125,i_65,,baseline,2a,Central
p_13790354,223,20,1,250,i_222,110,transposed,2a,Central
p_13790354,224,418,1,250,i_52,,baseline,2a,Central
p_13790355,1,1368.4,1,250,i_90,,baseline,2a,Central
p_13790355,2,1116.6,0,125,i_147,35,transposed,2a,Central
p_13790355,3,1419.3,1,125,i_199,87,control,2a,Central
p_13790355,4,2700.9,1,250,i_61,,baseline,2a,Central
p_13790355,5,1071,1,250,i_175,63,control,2a,Central
p_13790355,6,1100.3,1,125,i_203,91,control,2a,Central
p_13790355,7,774.3,1,250,i_84,,baseline,2a,Central
p_13790355,8,1141.8,0,125,i_42,,baseline,2a,Central
p_13790355,9,1116.3,0,125,i_153,41,transposed,2a,Central
p_13790355,10,711.2,1,125,i_39,,baseline,2a,Central
p_13790355,11,796.7,1,250,i_99,,baseline,2a,Central
p_13790355,12,901.7,1,250,i_122,10,transposed,2a,Central
p_13790355,13,702.9,1,250,i_195,83,control,2a,Central
p_13790355,14,711.2,0,125,i_154,42,transposed,2a,Central
p_13790355,15,742.1,1,125,i_202,90,control,2a,Central
p_13790355,16,792.3,1,250,i_104,,baseline,2a,Central
p_13790355,17,1519.8,1,125,i_56,,baseline,2a,Central
p_13790355,18,364.8,1,250,i_117,5,transposed,2a,Central
p_13790355,19,801.3,1,125,i_7,,baseline,2a,Central
p_13790355,20,983.8,1,250,i_57,,baseline,2a,Central
p_13790355,21,811.5,1,125,i_23,,baseline,2a,Central
p_13790355,22,588.7,0,250,i_179,67,control,2a,Central
p_13790355,23,1135.9,0,125,i_32,,baseline,2a,Central
p_13790355,24,798.7,1,125,i_21,,baseline,2a,Central
p_13790355,25,681.4,1,250,i_96,,baseline,2a,Central
p_13790355,26,852.9,1,250,i_73,,baseline,2a,Central
p_13790355,27,1366.5,1,125,i_224,112,control,2a,Central
p_13790355,28,560.1,0,125,i_222,110,control,2a,Central
p_13790355,29,760.4,1,250,i_170,58,control,2a,Central
p_13790355,30,844.2,1,250,i_132,20,transposed,2a,Central
p_13790355,31,1316.1,0,125,i_168,56,transposed,2a,Central
p_13790355,32,997.4,1,125,i_43,,baseline,2a,Central
p_13790355,33,1289.5,1,125,i_155,43,transposed,2a,Central
p_13790355,34,1044.1,1,125,i_216,104,control,2a,Central
p_13790355,35,1029.4,1,250,i_193,81,control,2a,Central
p_13790355,36,1173.7,1,250,i_60,,baseline,2a,Central
p_13790355,37,707.1,1,250,i_91,,baseline,2a,Central
p_13790355,38,1364.6,1,250,i_82,,baseline,2a,Central
p_13790355,39,1058.5,1,250,i_121,9,transposed,2a,Central
p_13790355,40,742.7,1,250,i_140,28,transposed,2a,Central
p_13790355,41,1199.3,1,250,i_191,79,control,2a,Central
p_13790355,42,920.8,1,125,i_28,,baseline,2a,Central
p_13790355,43,850,1,125,i_198,86,control,2a,Central
p_13790355,44,588.2,1,125,i_1,,baseline,2a,Central
p_13790355,45,1000.5,1,125,i_211,99,control,2a,Central
p_13790355,46,700,1,125,i_51,,baseline,2a,Central
p_13790355,47,818.2,1,125,i_209,97,control,2a,Central
p_13790355,48,905.2,1,250,i_75,,baseline,2a,Central
p_13790355,49,826.5,1,250,i_138,26,transposed,2a,Central
p_13790355,50,748.1,1,250,i_136,24,transposed,2a,Central
p_13790355,51,1157.4,1,125,i_217,105,control,2a,Central
p_13790355,52,600.9,1,125,i_12,,baseline,2a,Central
p_13790355,53,1102,0,125,i_214,102,control,2a,Central
p_13790355,54,721.3,1,250,i_176,64,control,2a,Central
p_13790355,55,560.6,1,250,i_67,,baseline,2a,Central
p_13790355,56,717.4,1,250,i_86,,baseline,2a,Central
p_13790355,57,774.6,1,125,i_50,,baseline,2a,Central
p_13790355,58,461.7,1,250,i_72,,baseline,2a,Central
p_13790355,59,458.5,1,250,i_171,59,control,2a,Central
p_13790355,60,1497.9,0,125,i_27,,baseline,2a,Central
p_13790355,61,578,1,125,i_19,,baseline,2a,Central
p_13790355,62,1216.7,1,250,i_81,,baseline,2a,Central
p_13790355,63,1028.6,1,250,i_187,75,control,2a,Central
p_13790355,64,530.6,0,250,i_137,25,transposed,2a,Central
p_13790355,65,600,1,250,i_114,2,transposed,2a,Central
p_13790355,66,1107.7,1,125,i_206,94,control,2a,Central
p_13790355,67,914.8,1,125,i_14,,baseline,2a,Central
p_13790355,68,750.4,1,125,i_41,,baseline,2a,Central
p_13790355,69,667.8,1,250,i_131,19,transposed,2a,Central
p_13790355,70,737.2,1,125,i_37,,baseline,2a,Central
p_13790355,71,2384.3,0,250,i_133,21,transposed,2a,Central
p_13790355,72,1121.4,1,125,i_16,,baseline,2a,Central
p_13790355,73,798,1,125,i_52,,baseline,2a,Central
p_13790355,74,724,1,125,i_49,,baseline,2a,Central
p_13790355,75,650.9,0,125,i_156,44,transposed,2a,Central
p_13790355,76,720.8,0,250,i_123,11,transposed,2a,Central
p_13790355,77,1480.3,1,125,i_212,100,control,2a,Central
p_13790355,78,657.9,1,250,i_105,,baseline,2a,Central
p_13790355,79,767.6,0,250,i_127,15,transposed,2a,Central
p_13790355,80,662.1,1,250,i_119,7,transposed,2a,Central
p_13790355,81,501.8,1,250,i_192,80,control,2a,Central
p_13790355,82,684,1,250,i_97,,baseline,2a,Central
p_13790355,83,710.2,1,125,i_210,98,control,2a,Central
p_13790355,84,478.5,1,250,i_77,,baseline,2a,Central
p_13790355,85,641.5,1,125,i_17,,baseline,2a,Central
p_13790355,86,930.8,1,125,i_55,,baseline,2a,Central
p_13790355,87,501.9,1,250,i_79,,baseline,2a,Central
p_13790355,88,777.3,1,250,i_63,,baseline,2a,Central
p_13790355,89,645.3,1,250,i_185,73,control,2a,Central
p_13790355,90,662.2,1,250,i_115,3,transposed,2a,Central
p_13790355,91,1164.6,1,125,i_31,,baseline,2a,Central
p_13790355,92,938.2,1,125,i_162,50,transposed,2a,Central
p_13790355,93,749.9,1,250,i_109,,baseline,2a,Central
p_13790355,94,606.8,1,250,i_178,66,control,2a,Central
p_13790355,95,650.8,1,250,i_76,,baseline,2a,Central
p_13790355,96,1325.3,0,125,i_142,30,transposed,2a,Central
p_13790355,97,368.8,1,250,i_116,4,transposed,2a,Central
p_13790355,98,365.7,1,250,i_120,8,transposed,2a,Central
p_13790355,99,1519.1,1,250,i_101,,baseline,2a,Central
p_13790355,100,1002.7,1,125,i_220,108,control,2a,Central
p_13790355,101,1059.6,0,125,i_36,,baseline,2a,Central
p_13790355,102,854.5,0,125,i_45,,baseline,2a,Central
p_13790355,103,435.5,1,125,i_9,,baseline,2a,Central
p_13790355,104,675.4,1,250,i_80,,baseline,2a,Central
p_13790355,105,982.4,0,125,i_146,34,transposed,2a,Central
p_13790355,106,762.5,1,125,i_40,,baseline,2a,Central
p_13790355,107,2061.2,0,250,i_113,1,transposed,2a,Central
p_13790355,108,1490.7,1,125,i_48,,baseline,2a,Central
p_13790355,109,814.7,1,250,i_190,78,control,2a,Central
p_13790355,110,1029.8,1,125,i_149,37,transposed,2a,Central
p_13790355,111,753.3,1,250,i_62,,baseline,2a,Central
p_13790355,112,567.5,1,250,i_74,,baseline,2a,Central
p_13790355,113,1135.3,0,125,i_221,109,control,2a,Central
p_13790355,114,938.4,0,250,i_98,,baseline,2a,Central
p_13790355,115,721.2,1,250,i_66,,baseline,2a,Central
p_13790355,116,709.8,1,125,i_25,,baseline,2a,Central
p_13790355,117,1128.4,0,250,i_124,12,transposed,2a,Central
p_13790355,118,687.8,1,250,i_177,65,control,2a,Central
p_13790355,119,984.7,1,250,i_174,62,control,2a,Central
p_13790355,120,1101.2,1,125,i_223,111,control,2a,Central
p_13790355,121,707.8,1,250,i_78,,baseline,2a,Central
p_13790355,122,715,1,250,i_125,13,transposed,2a,Central
p_13790355,123,734.1,1,125,i_151,39,transposed,2a,Central
p_13790355,124,620.5,1,250,i_135,23,transposed,2a,Central
p_13790355,125,725.7,1,250,i_65,,baseline,2a,Central
p_13790355,126,1384.4,1,125,i_141,29,transposed,2a,Central
p_13790355,127,1948.5,1,125,i_47,,baseline,2a,Central
p_13790355,128,1025.7,1,125,i_197,85,control,2a,Central
p_13790355,129,1275.5,1,250,i_59,,baseline,2a,Central
p_13790355,130,926,0,125,i_158,46,transposed,2a,Central
p_13790355,131,1723.5,1,125,i_30,,baseline,2a,Central
p_13790355,132,1353.9,1,125,i_18,,baseline,2a,Central
p_13790355,133,863.9,1,125,i_201,89,control,2a,Central
p_13790355,134,740.2,1,250,i_189,77,control,2a,Central
p_13790355,135,875.2,1,250,i_94,,baseline,2a,Central
p_13790355,136,738,1,250,i_106,,baseline,2a,Central
p_13790355,137,1833.8,0,250,i_196,84,control,2a,Central
p_13790355,138,695.1,1,250,i_64,,baseline,2a,Central
p_13790355,139,697.3,1,250,i_180,68,control,2a,Central
p_13790355,140,1471.4,1,125,i_215,103,control,2a,Central
p_13790355,141,809.9,0,125,i_22,,baseline,2a,Central
p_13790355,142,682.3,1,250,i_95,,baseline,2a,Central
p_13790355,143,749.8,1,125,i_35,,baseline,2a,Central
p_13790355,144,774.7,0,125,i_144,32,transposed,2a,Central
p_13790355,145,742.1,1,250,i_112,,baseline,2a,Central
p_13790355,146,919.1,1,250,i_103,,baseline,2a,Central
p_13790355,147,714.6,1,250,i_93,,baseline,2a,Central
p_13790355,148,1327,1,125,i_213,101,control,2a,Central
p_13790355,149,893.6,1,125,i_205,93,control,2a,Central
p_13790355,150,848.6,1,125,i_207,95,control,2a,Central
p_13790355,151,569.2,1,250,i_186,74,control,2a,Central
p_13790355,152,674.4,1,250,i_169,57,control,2a,Central
p_13790355,153,1176.2,0,250,i_126,14,transposed,2a,Central
p_13790355,154,688.5,1,250,i_85,,baseline,2a,Central
p_13790355,155,2052.1,0,125,i_218,106,control,2a,Central
p_13790355,156,537.4,1,125,i_29,,baseline,2a,Central
p_13790355,157,543.5,1,250,i_88,,baseline,2a,Central
p_13790355,158,471.6,1,250,i_100,,baseline,2a,Central
p_13790355,159,823.8,0,125,i_8,,baseline,2a,Central
p_13790355,160,902.4,1,125,i_15,,baseline,2a,Central
p_13790355,161,773.7,1,125,i_167,55,transposed,2a,Central
p_13790355,162,865.2,1,250,i_182,70,control,2a,Central
p_13790355,163,818.5,1,250,i_71,,baseline,2a,Central
p_13790355,164,1023.1,0,125,i_157,45,transposed,2a,Central
p_13790355,165,745.4,1,250,i_188,76,control,2a,Central
p_13790355,166,1920,1,125,i_33,,baseline,2a,Central
p_13790355,167,1588.6,1,125,i_46,,baseline,2a,Central
p_13790355,168,968.3,1,250,i_129,17,transposed,2a,Central
p_13790355,169,775.8,1,250,i_68,,baseline,2a,Central
p_13790355,170,1265.6,0,125,i_150,38,transposed,2a,Central
p_13790355,171,1146.7,1,125,i_53,,baseline,2a,Central
p_13790355,172,1426.3,1,125,i_26,,baseline,2a,Central
p_13790355,173,512.5,1,125,i_34,,baseline,2a,Central
p_13790355,174,1385.4,1,125,i_54,,baseline,2a,Central
p_13790355,175,801.1,1,250,i_58,,baseline,2a,Central
p_13790355,176,965.1,1,125,i_13,,baseline,2a,Central
p_13790355,177,665.3,1,250,i_110,,baseline,2a,Central
p_13790355,178,1184.6,1,250,i_108,,baseline,2a,Central
p_13790355,179,1404.4,1,125,i_6,,baseline,2a,Central
p_13790355,180,405.4,1,250,i_107,,baseline,2a,Central
p_13790355,181,386,1,250,i_69,,baseline,2a,Central
p_13790355,182,827.9,1,125,i_24,,baseline,2a,Central
p_13790355,183,613.8,1,250,i_87,,baseline,2a,Central
p_13790355,184,747.2,1,125,i_10,,baseline,2a,Central
p_13790355,185,601.2,1,250,i_111,,baseline,2a,Central
p_13790355,186,522.2,1,125,i_11,,baseline,2a,Central
p_13790355,187,677.9,0,125,i_160,48,transposed,2a,Central
p_13790355,188,1925,1,125,i_2,,baseline,2a,Central
p_13790355,189,667.9,1,250,i_172,60,control,2a,Central
p_13790355,190,689.7,1,250,i_181,69,control,2a,Central
p_13790355,191,904.3,1,125,i_204,92,control,2a,Central
p_13790355,192,713.4,1,125,i_145,33,transposed,2a,Central
p_13790355,193,642.1,1,250,i_184,72,control,2a,Central
p_13790355,194,680.5,1,250,i_118,6,transposed,2a,Central
p_13790355,195,611.6,1,250,i_130,18,transposed,2a,Central
p_13790355,196,736.9,1,125,i_5,,baseline,2a,Central
p_13790355,197,681.5,0,125,i_165,53,transposed,2a,Central
p_13790355,198,686.7,0,125,i_164,52,transposed,2a,Central
p_13790355,199,794.9,1,125,i_4,,baseline,2a,Central
p_13790355,200,657.1,0,125,i_166,54,transposed,2a,Central
p_13790355,201,638.1,0,250,i_83,,baseline,2a,Central
p_13790355,202,764.7,1,125,i_38,,baseline,2a,Central
p_13790355,203,715.6,1,250,i_89,,baseline,2a,Central
p_13790355,204,994.5,0,125,i_219,107,control,2a,Central
p_13790355,205,1200.6,1,250,i_194,82,control,2a,Central
p_13790355,206,1054.3,0,250,i_183,71,control,2a,Central
p_13790355,207,820,0,250,i_92,,baseline,2a,Central
p_13790355,208,1285.9,1,125,i_20,,baseline,2a,Central
p_13790355,209,938.8,0,125,i_159,47,transposed,2a,Central
p_13790355,210,1538.2,1,125,i_200,88,control,2a,Central
p_13790355,211,1318.9,1,250,i_173,61,control,2a,Central
p_13790355,212,1161.9,1,125,i_208,96,control,2a,Central
p_13790355,213,937.6,1,250,i_139,27,transposed,2a,Central
p_13790355,214,590.3,1,250,i_134,22,transposed,2a,Central
p_13790355,215,997.9,0,250,i_102,,baseline,2a,Central
p_13790355,216,714.5,1,250,i_128,16,transposed,2a,Central
p_13790355,217,4047.3,0,125,i_44,,baseline,2a,Central
p_13790355,218,993.4,0,125,i_148,36,transposed,2a,Central
p_13790355,219,1005.6,0,125,i_161,49,transposed,2a,Central
p_13790355,220,1276,0,125,i_152,40,transposed,2a,Central
p_13790355,221,881.2,0,125,i_3,,baseline,2a,Central
p_13790355,222,925,1,125,i_163,51,transposed,2a,Central
p_13790355,223,1176.5,1,125,i_143,31,transposed,2a,Central
p_13790355,224,957,1,250,i_70,,baseline,2a,Central
p_13790356,1,1499.1,1,125,i_8,,baseline,2a,Central
p_13790356,2,393.3,1,250,i_121,9,control,2a,Central
p_13790356,3,1119.8,0,250,i_176,64,transposed,2a,Central
p_13790356,4,722.5,1,125,i_42,,baseline,2a,Central
p_13790356,5,726.4000001,1,250,i_100,,baseline,2a,Central
p_13790356,6,677.7,1,250,i_103,,baseline,2a,Central
p_13790356,7,1465.2,1,250,i_188,76,transposed,2a,Central
p_13790356,8,2799.8,1,125,i_141,29,control,2a,Central
p_13790356,9,342.5,1,250,i_171,59,transposed,2a,Central
p_13790356,10,2251.5,1,250,i_60,,baseline,2a,Central
p_13790356,11,992.3000001,1,250,i_106,,baseline,2a,Central
p_13790356,12,1298.3,1,125,i_15,,baseline,2a,Central
p_13790356,13,1430,1,125,i_9,,baseline,2a,Central
p_13790356,14,770.1999999,1,250,i_128,16,control,2a,Central
p_13790356,15,852.4,1,125,i_54,,baseline,2a,Central
p_13790356,16,1220.5,1,125,i_198,86,transposed,2a,Central
p_13790356,17,1526.7,1,125,i_162,50,control,2a,Central
p_13790356,18,358.7,0,250,i_62,,baseline,2a,Central
p_13790356,19,964,1,250,i_82,,baseline,2a,Central
p_13790356,20,835.5,1,125,i_11,,baseline,2a,Central
p_13790356,21,462.9,1,250,i_132,20,control,2a,Central
p_13790356,22,542.4,1,125,i_34,,baseline,2a,Central
p_13790356,23,1403.4,1,250,i_61,,baseline,2a,Central
p_13790356,24,886.1999999,1,125,i_164,52,control,2a,Central
p_13790356,25,874.1,1,250,i_71,,baseline,2a,Central
p_13790356,26,911.9000001,1,125,i_24,,baseline,2a,Central
p_13790356,27,600.6,1,250,i_101,,baseline,2a,Central
p_13790356,28,486.9,1,250,i_123,11,control,2a,Central
p_13790356,29,1491.5,0,125,i_224,112,transposed,2a,Central
p_13790356,30,411.8000001,1,250,i_119,7,control,2a,Central
p_13790356,31,423.4,1,250,i_131,19,control,2a,Central
p_13790356,32,886.9,1,250,i_112,,baseline,2a,Central
p_13790356,33,1361.7,1,125,i_33,,baseline,2a,Central
p_13790356,34,1360.1,0,125,i_199,87,transposed,2a,Central
p_13790356,35,1010.5,1,250,i_111,,baseline,2a,Central
p_13790356,36,573.1999999,1,125,i_146,34,control,2a,Central
p_13790356,37,1701.7,1,250,i_177,65,transposed,2a,Central
p_13790356,38,611.4,0,250,i_85,,baseline,2a,Central
p_13790356,39,893.9,1,250,i_107,,baseline,2a,Central
p_13790356,40,458.8000001,1,250,i_116,4,control,2a,Central
p_13790356,41,747.2,1,125,i_168,56,control,2a,Central
p_13790356,42,730.8,1,125,i_151,39,control,2a,Central
p_13790356,43,554.3,1,250,i_98,,baseline,2a,Central
p_13790356,44,1193,1,125,i_156,44,control,2a,Central
p_13790356,45,358.2,1,250,i_137,25,control,2a,Central
p_13790356,46,1561.2,1,250,i_185,73,transposed,2a,Central
p_13790356,47,741.9,1,125,i_50,,baseline,2a,Central
p_13790356,48,588.6,1,125,i_166,54,control,2a,Central
p_13790356,49,361.2,1,250,i_138,26,control,2a,Central
p_13790356,50,353.8000001,1,125,i_38,,baseline,2a,Central
p_13790356,51,818.8000001,1,125,i_142,30,control,2a,Central
p_13790356,52,1784.8,1,250,i_59,,baseline,2a,Central
p_13790356,53,574.8,1,250,i_63,,baseline,2a,Central
p_13790356,54,613.9,1,250,i_78,,baseline,2a,Central
p_13790356,55,870.6999999,1,125,i_52,,baseline,2a,Central
p_13790356,56,548.5,1,250,i_178,66,transposed,2a,Central
p_13790356,57,340.3,1,250,i_127,15,control,2a,Central
p_13790356,58,558,1,125,i_53,,baseline,2a,Central
p_13790356,59,449.9000001,1,250,i_104,,baseline,2a,Central
p_13790356,60,687.1,0,125,i_220,108,transposed,2a,Central
p_13790356,61,624,1,125,i_161,49,control,2a,Central
p_13790356,62,350.7,1,250,i_182,70,transposed,2a,Central
p_13790356,63,478.9,0,250,i_92,,baseline,2a,Central
p_13790356,64,696.9,1,125,i_31,,baseline,2a,Central
p_13790356,65,588.7,1,250,i_84,,baseline,2a,Central
p_13790356,66,728.7,1,125,i_13,,baseline,2a,Central
p_13790356,67,943.4,1,125,i_144,32,control,2a,Central
p_13790356,68,535.3,1,250,i_93,,baseline,2a,Central
p_13790356,69,446.5999999,1,250,i_68,,baseline,2a,Central
p_13790356,70,427.6,1,250,i_89,,baseline,2a,Central
p_13790356,71,648.6999999,1,125,i_153,41,control,2a,Central
p_13790356,72,346.3,1,250,i_117,5,control,2a,Central
p_13790356,73,505,1,125,i_18,,baseline,2a,Central
p_13790356,74,562.6,0,125,i_219,107,transposed,2a,Central
p_13790356,75,587.5,1,250,i_102,,baseline,2a,Central
p_13790356,76,561.6999999,1,125,i_10,,baseline,2a,Central
p_13790356,77,455.1,0,250,i_96,,baseline,2a,Central
p_13790356,78,456.8000001,0,125,i_213,101,transposed,2a,Central
p_13790356,79,502.8000001,0,125,i_223,111,transposed,2a,Central
p_13790356,80,975.3000001,0,250,i_173,61,transposed,2a,Central
p_13790356,81,468.6,1,125,i_37,,baseline,2a,Central
p_13790356,82,282.4000001,1,250,i_114,2,control,2a,Central
p_13790356,83,1193.3,0,125,i_211,99,transposed,2a,Central
p_13790356,84,644.2,0,125,i_210,98,transposed,2a,Central
p_13790356,85,1402.7,1,125,i_46,,baseline,2a,Central
p_13790356,86,449.8000001,1,250,i_95,,baseline,2a,Central
p_13790356,87,360.4,1,250,i_192,80,transposed,2a,Central
p_13790356,88,456.9000001,0,250,i_87,,baseline,2a,Central
p_13790356,89,896.5999999,1,125,i_20,,baseline,2a,Central
p_13790356,90,1565.5,1,250,i_66,,baseline,2a,Central
p_13790356,91,405.2,1,250,i_129,17,control,2a,Central
p_13790356,92,2738.2,0,250,i_183,71,transposed,2a,Central
p_13790356,93,1241,1,125,i_14,,baseline,2a,Central
p_13790356,94,505.7,0,125,i_215,103,transposed,2a,Central
p_13790356,95,367.6999999,1,250,i_140,28,control,2a,Central
p_13790356,96,547.6999999,1,125,i_167,55,control,2a,Central
p_13790356,97,400.8,0,125,i_212,100,transposed,2a,Central
p_13790356,98,805.4,0,250,i_195,83,transposed,2a,Central
p_13790356,99,366.4,1,250,i_105,,baseline,2a,Central
p_13790356,100,699.5,1,125,i_2,,baseline,2a,Central
p_13790356,101,491.6,1,250,i_69,,baseline,2a,Central
p_13790356,102,742.9,1,125,i_25,,baseline,2a,Central
p_13790356,103,669.2,0,125,i_221,109,transposed,2a,Central
p_13790356,104,1695.6,0,125,i_214,102,transposed,2a,Central
p_13790356,105,2001.1,1,250,i_172,60,transposed,2a,Central
p_13790356,106,431.8,1,250,i_86,,baseline,2a,Central
p_13790356,107,364.9,1,250,i_189,77,transposed,2a,Central
p_13790356,108,949.8,1,125,i_149,37,control,2a,Central
p_13790356,109,391.6,1,250,i_174,62,transposed,2a,Central
p_13790356,110,498.4,1,250,i_83,,baseline,2a,Central
p_13790356,111,1280.9,1,125,i_49,,baseline,2a,Central
p_13790356,112,713.8000001,1,250,i_181,69,transposed,2a,Central
p_13790356,113,656.9,1,125,i_48,,baseline,2a,Central
p_13790356,114,558,1,250,i_99,,baseline,2a,Central
p_13790356,115,276.9,1,250,i_125,13,control,2a,Central
p_13790356,116,607.8,1,125,i_145,33,control,2a,Central
p_13790356,117,291.2,0,250,i_179,67,transposed,2a,Central
p_13790356,118,698,1,125,i_160,48,control,2a,Central
p_13790356,119,580.1999999,1,125,i_44,,baseline,2a,Central
p_13790356,120,374.2,1,250,i_90,,baseline,2a,Central
p_13790356,121,619.1,1,125,i_165,53,control,2a,Central
p_13790356,122,457.5,0,125,i_207,95,transposed,2a,Central
p_13790356,123,1075.9,1,250,i_175,63,transposed,2a,Central
p_13790356,124,702.2,1,125,i_43,,baseline,2a,Central
p_13790356,125,353.4,1,125,i_36,,baseline,2a,Central
p_13790356,126,775.0999999,1,250,i_88,,baseline,2a,Central
p_13790356,127,847.5,1,125,i_159,47,control,2a,Central
p_13790356,128,611,1,250,i_110,,baseline,2a,Central
p_13790356,129,300,1,250,i_67,,baseline,2a,Central
p_13790356,130,1312.1,1,250,i_187,75,transposed,2a,Central
p_13790356,131,927.8000001,1,250,i_196,84,transposed,2a,Central
p_13790356,132,889.9,0,125,i_208,96,transposed,2a,Central
p_13790356,133,508.8,1,125,i_32,,baseline,2a,Central
p_13790356,134,402.8,1,125,i_26,,baseline,2a,Central
p_13790356,135,474.9,1,250,i_109,,baseline,2a,Central
p_13790356,136,1508.6,1,125,i_30,,baseline,2a,Central
p_13790356,137,296.9,1,250,i_126,14,control,2a,Central
p_13790356,138,771.8,0,125,i_206,94,transposed,2a,Central
p_13790356,139,840.6999999,0,125,i_209,97,transposed,2a,Central
p_13790356,140,652.3,1,125,i_41,,baseline,2a,Central
p_13790356,141,715.8000001,1,125,i_154,42,control,2a,Central
p_13790356,142,272.1,1,250,i_118,6,control,2a,Central
p_13790356,143,357.1,1,250,i_81,,baseline,2a,Central
p_13790356,144,321.3,1,250,i_57,,baseline,2a,Central
p_13790356,145,773.0999999,1,125,i_21,,baseline,2a,Central
p_13790356,146,563.3,1,125,i_47,,baseline,2a,Central
p_13790356,147,845.9000001,1,250,i_80,,baseline,2a,Central
p_13790356,148,267.6999999,1,250,i_113,1,control,2a,Central
p_13790356,149,393.4,1,250,i_64,,baseline,2a,Central
p_13790356,150,439.6,1,250,i_79,,baseline,2a,Central
p_13790356,151,578.6,1,125,i_39,,baseline,2a,Central
p_13790356,152,289.1,1,250,i_134,22,control,2a,Central
p_13790356,153,322.9,1,125,i_51,,baseline,2a,Central
p_13790356,154,453.8,1,250,i_72,,baseline,2a,Central
p_13790356,155,921.2,1,250,i_94,,baseline,2a,Central
p_13790356,156,455.0999999,1,250,i_91,,baseline,2a,Central
p_13790356,157,329.4000001,1,250,i_180,68,transposed,2a,Central
p_13790356,158,439.8000001,1,125,i_12,,baseline,2a,Central
p_13790356,159,453.7,1,125,i_29,,baseline,2a,Central
p_13790356,160,360.8000001,1,125,i_197,85,transposed,2a,Central
p_13790356,161,470.2,1,125,i_158,46,control,2a,Central
p_13790356,162,635.6,1,125,i_56,,baseline,2a,Central
p_13790356,163,368.8000001,1,125,i_157,45,control,2a,Central
p_13790356,164,431,1,125,i_55,,baseline,2a,Central
p_13790356,165,314.4,1,250,i_122,10,control,2a,Central
p_13790356,166,480.5,1,250,i_73,,baseline,2a,Central
p_13790356,167,676.6999999,1,250,i_65,,baseline,2a,Central
p_13790356,168,294.1,1,125,i_155,43,control,2a,Central
p_13790356,169,649,1,250,i_70,,baseline,2a,Central
p_13790356,170,552.3000001,1,125,i_7,,baseline,2a,Central
p_13790356,171,385.2,1,125,i_27,,baseline,2a,Central
p_13790356,172,1048.4,1,250,i_58,,baseline,2a,Central
p_13790356,173,412,1,125,i_3,,baseline,2a,Central
p_13790356,174,380.1999999,0,250,i_186,74,transposed,2a,Central
p_13790356,175,464.3,1,125,i_28,,baseline,2a,Central
p_13790356,176,618.9,1,125,i_17,,baseline,2a,Central
p_13790356,177,940.5,1,125,i_201,89,transposed,2a,Central
p_13790356,178,355.5,1,125,i_148,36,control,2a,Central
p_13790356,179,1107.8,1,125,i_152,40,control,2a,Central
p_13790356,180,971,1,125,i_218,106,transposed,2a,Central
p_13790356,181,303.8,0,125,i_6,,baseline,2a,Central
p_13790356,182,608.5999999,0,125,i_203,91,transposed,2a,Central
p_13790356,183,528.0999999,1,125,i_23,,baseline,2a,Central
p_13790356,184,304.4,1,250,i_169,57,transposed,2a,Central
p_13790356,185,1169,1,125,i_16,,baseline,2a,Central
p_13790356,186,575.9,0,125,i_200,88,transposed,2a,Central
p_13790356,187,311.1,1,250,i_135,23,control,2a,Central
p_13790356,188,323.6,1,125,i_35,,baseline,2a,Central
p_13790356,189,365.6,1,250,i_130,18,control,2a,Central
p_13790356,190,576.9,1,250,i_184,72,transposed,2a,Central
p_13790356,191,412.1,1,250,i_77,,baseline,2a,Central
p_13790356,192,1529.3,0,250,i_191,79,transposed,2a,Central
p_13790356,193,399.1,0,125,i_217,105,transposed,2a,Central
p_13790356,194,633.4,1,125,i_40,,baseline,2a,Central
p_13790356,195,557.9,1,125,i_163,51,control,2a,Central
p_13790356,196,316.2,1,250,i_194,82,transposed,2a,Central
p_13790356,197,653.3,0,125,i_204,92,transposed,2a,Central
p_13790356,198,785,0,125,i_222,110,transposed,2a,Central
p_13790356,199,298.5999999,1,250,i_190,78,transposed,2a,Central
p_13790356,200,279.0999999,1,250,i_120,8,control,2a,Central
p_13790356,201,679.8,1,125,i_22,,baseline,2a,Central
p_13790356,202,353.4,1,125,i_19,,baseline,2a,Central
p_13790356,203,420.4000001,1,125,i_45,,baseline,2a,Central
p_13790356,204,410.4,1,125,i_150,38,control,2a,Central
p_13790356,205,1322.7,1,250,i_124,12,control,2a,Central
p_13790356,206,301,1,250,i_139,27,control,2a,Central
p_13790356,207,386.4,1,250,i_133,21,control,2a,Central
p_13790356,208,492.8,1,125,i_1,,baseline,2a,Central
p_13790356,209,651.8,1,250,i_108,,baseline,2a,Central
p_13790356,210,697.6,1,125,i_5,,baseline,2a,Central
p_13790356,211,399.9,1,250,i_76,,baseline,2a,Central
p_13790356,212,325.6,1,250,i_97,,baseline,2a,Central
p_13790356,213,699.9,1,250,i_74,,baseline,2a,Central
p_13790356,214,366.3,1,125,i_147,35,control,2a,Central
p_13790356,215,511.1,1,250,i_75,,baseline,2a,Central
p_13790356,216,881,1,125,i_143,31,control,2a,Central
p_13790356,217,517.6,0,125,i_216,104,transposed,2a,Central
p_13790356,218,872.1999999,1,125,i_4,,baseline,2a,Central
p_13790356,219,500.4,0,125,i_202,90,transposed,2a,Central
p_13790356,220,678.0999999,0,125,i_205,93,transposed,2a,Central
p_13790356,221,336.3,1,250,i_170,58,transposed,2a,Central
p_13790356,222,315.9,1,250,i_136,24,control,2a,Central
p_13790356,223,394.9,1,250,i_115,3,control,2a,Central
p_13790356,224,787.6,1,250,i_193,81,transposed,2a,Central
p_13790358,1,689.6000001,1,250,i_89,,baseline,2a,Central
p_13790358,2,2841.5,1,250,i_85,,baseline,2a,Central
p_13790358,3,806.3,0,125,i_150,38,transposed,2a,Central
p_13790358,4,1416.3,0,125,i_156,44,transposed,2a,Central
p_13790358,5,1200.3,1,250,i_136,24,transposed,2a,Central
p_13790358,6,1200.6,1,250,i_126,14,transposed,2a,Central
p_13790358,7,633.1000001,1,250,i_82,,baseline,2a,Central
p_13790358,8,935.5,0,125,i_166,54,transposed,2a,Central
p_13790358,9,1750.7,1,250,i_123,11,transposed,2a,Central
p_13790358,10,565.4000001,1,250,i_67,,baseline,2a,Central
p_13790358,11,917.5999999,1,125,i_10,,baseline,2a,Central
p_13790358,12,863.8,1,125,i_209,97,control,2a,Central
p_13790358,13,581.5,1,250,i_80,,baseline,2a,Central
p_13790358,14,953.8,1,125,i_223,111,control,2a,Central
p_13790358,15,973.3999999,1,125,i_214,102,control,2a,Central
p_13790358,16,741.9000001,1,250,i_195,83,control,2a,Central
p_13790358,17,1210.5,1,125,i_203,91,control,2a,Central
p_13790358,18,973.6000001,0,250,i_177,65,control,2a,Central
p_13790358,19,854.5,1,125,i_217,105,control,2a,Central
p_13790358,20,737,1,125,i_14,,baseline,2a,Central
p_13790358,21,632,1,250,i_66,,baseline,2a,Central
p_13790358,22,751.3,1,250,i_59,,baseline,2a,Central
p_13790358,23,697.9000001,1,250,i_75,,baseline,2a,Central
p_13790358,24,705.3,1,250,i_189,77,control,2a,Central
p_13790358,25,679.8000002,1,125,i_18,,baseline,2a,Central
p_13790358,26,524.0999999,1,250,i_95,,baseline,2a,Central
p_13790358,27,959.8,1,125,i_35,,baseline,2a,Central
p_13790358,28,429.2,1,250,i_175,63,control,2a,Central
p_13790358,29,1147.6,1,250,i_131,19,transposed,2a,Central
p_13790358,30,485.2,1,250,i_173,61,control,2a,Central
p_13790358,31,669.3,1,125,i_15,,baseline,2a,Central
p_13790358,32,522.5999999,1,250,i_170,58,control,2a,Central
p_13790358,33,956.5999999,1,125,i_201,89,control,2a,Central
p_13790358,34,606.0999999,0,125,i_144,32,transposed,2a,Central
p_13790358,35,1225.2,1,250,i_140,28,transposed,2a,Central
p_13790358,36,1460.1,1,125,i_202,90,control,2a,Central
p_13790358,37,865,1,125,i_46,,baseline,2a,Central
p_13790358,38,1204.8,1,125,i_158,46,transposed,2a,Central
p_13790358,39,623,1,250,i_81,,baseline,2a,Central
p_13790358,40,545.5999999,1,250,i_109,,baseline,2a,Central
p_13790358,41,838.8999999,1,125,i_22,,baseline,2a,Central
p_13790358,42,708.6000001,1,125,i_30,,baseline,2a,Central
p_13790358,43,817.0999999,1,125,i_2,,baseline,2a,Central
p_13790358,44,1447.8,1,125,i_165,53,transposed,2a,Central
p_13790358,45,617.5,1,250,i_73,,baseline,2a,Central
p_13790358,46,538.3999999,1,250,i_69,,baseline,2a,Central
p_13790358,47,15187.8,0,125,i_149,37,transposed,2a,Central
p_13790358,48,601,1,250,i_74,,baseline,2a,Central
p_13790358,49,571,0,125,i_154,42,transposed,2a,Central
p_13790358,50,456.1000001,1,250,i_99,,baseline,2a,Central
p_13790358,51,431.5,1,250,i_96,,baseline,2a,Central
p_13790358,52,1021.4,1,250,i_70,,baseline,2a,Central
p_13790358,53,946,1,125,i_205,93,control,2a,Central
p_13790358,54,552.8,1,250,i_97,,baseline,2a,Central
p_13790358,55,785.8,1,125,i_7,,baseline,2a,Central
p_13790358,56,441.7,1,250,i_88,,baseline,2a,Central
p_13790358,57,472.2,1,250,i_77,,baseline,2a,Central
p_13790358,58,1384.2,0,125,i_159,47,transposed,2a,Central
p_13790358,59,579.5,1,250,i_191,79,control,2a,Central
p_13790358,60,2769.2,1,250,i_139,27,transposed,2a,Central
p_13790358,61,1081.7,1,125,i_148,36,transposed,2a,Central
p_13790358,62,730.3,1,125,i_9,,baseline,2a,Central
p_13790358,63,879.3999999,1,125,i_222,110,control,2a,Central
p_13790358,64,1210.5,1,125,i_198,86,control,2a,Central
p_13790358,65,921.3999999,1,250,i_125,13,transposed,2a,Central
p_13790358,66,486.8,1,250,i_105,,baseline,2a,Central
p_13790358,67,702.3,1,250,i_135,23,transposed,2a,Central
p_13790358,68,794.2,1,250,i_118,6,transposed,2a,Central
p_13790358,69,1914.6,1,125,i_141,29,transposed,2a,Central
p_13790358,70,872.7,1,125,i_216,104,control,2a,Central
p_13790358,71,853.3,1,250,i_61,,baseline,2a,Central
p_13790358,72,936.3000002,1,125,i_31,,baseline,2a,Central
p_13790358,73,325.3999999,1,250,i_194,82,control,2a,Central
p_13790358,74,942,1,125,i_52,,baseline,2a,Central
p_13790358,75,593.0999999,1,125,i_49,,baseline,2a,Central
p_13790358,76,496,1,250,i_117,5,transposed,2a,Central
p_13790358,77,424.5,1,250,i_113,1,transposed,2a,Central
p_13790358,78,567.9000001,1,250,i_68,,baseline,2a,Central
p_13790358,79,958.5,1,125,i_3,,baseline,2a,Central
p_13790358,80,358.7,1,250,i_92,,baseline,2a,Central
p_13790358,81,745.5,1,125,i_204,92,control,2a,Central
p_13790358,82,970.3000002,0,125,i_143,31,transposed,2a,Central
p_13790358,83,414.7,1,250,i_93,,baseline,2a,Central
p_13790358,84,491.3000002,1,125,i_39,,baseline,2a,Central
p_13790358,85,1686.2,1,250,i_112,,baseline,2a,Central
p_13790358,86,368.5999999,1,250,i_121,9,transposed,2a,Central
p_13790358,87,436.2,1,125,i_41,,baseline,2a,Central
p_13790358,88,543.5999999,1,250,i_183,71,control,2a,Central
p_13790358,89,743.7,1,125,i_12,,baseline,2a,Central
p_13790358,90,521.5,1,250,i_71,,baseline,2a,Central
p_13790358,91,2008.6,1,125,i_5,,baseline,2a,Central
p_13790358,92,492.1000001,1,250,i_178,66,control,2a,Central
p_13790358,93,523.8,0,125,i_163,51,transposed,2a,Central
p_13790358,94,495.3,0,125,i_157,45,transposed,2a,Central
p_13790358,95,935.8,1,250,i_120,8,transposed,2a,Central
p_13790358,96,739.3999999,0,125,i_168,56,transposed,2a,Central
p_13790358,97,317.9000001,1,250,i_138,26,transposed,2a,Central
p_13790358,98,585,1,125,i_55,,baseline,2a,Central
p_13790358,99,339.8,1,250,i_76,,baseline,2a,Central
p_13790358,100,426.5,1,250,i_101,,baseline,2a,Central
p_13790358,101,335.1999998,1,250,i_171,59,control,2a,Central
p_13790358,102,773.6000001,1,125,i_212,100,control,2a,Central
p_13790358,103,391.4000001,1,250,i_58,,baseline,2a,Central
p_13790358,104,433.1999998,1,125,i_50,,baseline,2a,Central
p_13790358,105,738.5,1,125,i_145,33,transposed,2a,Central
p_13790358,106,491.2,1,250,i_63,,baseline,2a,Central
p_13790358,107,432.4000001,1,250,i_83,,baseline,2a,Central
p_13790358,108,585.3,1,125,i_220,108,control,2a,Central
p_13790358,109,6068.8,1,125,i_25,,baseline,2a,Central
p_13790358,110,338.8000002,1,250,i_124,12,transposed,2a,Central
p_13790358,111,437.6000001,1,250,i_193,81,control,2a,Central
p_13790358,112,727.2,1,125,i_51,,baseline,2a,Central
p_13790358,113,652.9000001,1,125,i_221,109,control,2a,Central
p_13790358,114,326.1000001,1,250,i_127,15,transposed,2a,Central
p_13790358,115,410.8,1,250,i_110,,baseline,2a,Central
p_13790358,116,735.3,1,250,i_186,74,control,2a,Central
p_13790358,117,524.8999999,1,250,i_84,,baseline,2a,Central
p_13790358,118,467,1,125,i_16,,baseline,2a,Central
p_13790358,119,259.4000001,1,250,i_72,,baseline,2a,Central
p_13790358,120,555.4000001,1,125,i_4,,baseline,2a,Central
p_13790358,121,377.7,0,125,i_207,95,control,2a,Central
p_13790358,122,461.1999998,1,125,i_44,,baseline,2a,Central
p_13790358,123,486.8999999,1,125,i_20,,baseline,2a,Central
p_13790358,124,387,1,250,i_79,,baseline,2a,Central
p_13790358,125,436.9000001,1,250,i_196,84,control,2a,Central
p_13790358,126,3910.5,0,125,i_146,34,transposed,2a,Central
p_13790358,127,382.9000001,1,125,i_13,,baseline,2a,Central
p_13790358,128,346,1,250,i_133,21,transposed,2a,Central
p_13790358,129,377.5,0,125,i_219,107,control,2a,Central
p_13790358,130,356.8,1,125,i_23,,baseline,2a,Central
p_13790358,131,663.3,1,125,i_19,,baseline,2a,Central
p_13790358,132,703.3000002,1,250,i_86,,baseline,2a,Central
p_13790358,133,503.9000001,1,125,i_53,,baseline,2a,Central
p_13790358,134,1379.6,0,125,i_8,,baseline,2a,Central
p_13790358,135,336,1,250,i_128,16,transposed,2a,Central
p_13790358,136,298.7,1,250,i_111,,baseline,2a,Central
p_13790358,137,226,1,250,i_107,,baseline,2a,Central
p_13790358,138,1044.2,1,125,i_160,48,transposed,2a,Central
p_13790358,139,361.5,1,125,i_142,30,transposed,2a,Central
p_13790358,140,364.5999999,1,250,i_98,,baseline,2a,Central
p_13790358,141,476.8000002,1,250,i_91,,baseline,2a,Central
p_13790358,142,336,1,250,i_90,,baseline,2a,Central
p_13790358,143,364.0999999,0,125,i_42,,baseline,2a,Central
p_13790358,144,630.3,0,125,i_162,50,transposed,2a,Central
p_13790358,145,484.3,1,250,i_103,,baseline,2a,Central
p_13790358,146,397.7,0,125,i_155,43,transposed,2a,Central
p_13790358,147,241.7,1,125,i_224,112,control,2a,Central
p_13790358,148,343.9000001,1,250,i_176,64,control,2a,Central
p_13790358,149,311.8999999,1,250,i_190,78,control,2a,Central
p_13790358,150,326.8,1,125,i_29,,baseline,2a,Central
p_13790358,151,719.0999999,0,125,i_211,99,control,2a,Central
p_13790358,152,371.3999999,1,250,i_172,60,control,2a,Central
p_13790358,153,583.8,1,125,i_200,88,control,2a,Central
p_13790358,154,309.1999998,1,250,i_184,72,control,2a,Central
p_13790358,155,617.2,1,125,i_215,103,control,2a,Central
p_13790358,156,636.8,1,250,i_62,,baseline,2a,Central
p_13790358,157,530.5,1,125,i_17,,baseline,2a,Central
p_13790358,158,567.9000001,1,125,i_28,,baseline,2a,Central
p_13790358,159,1694.2,1,125,i_27,,baseline,2a,Central
p_13790358,160,491.7,1,250,i_180,68,control,2a,Central
p_13790358,161,323.5,1,250,i_119,7,transposed,2a,Central
p_13790358,162,379.2,1,125,i_43,,baseline,2a,Central
p_13790358,163,796.5999999,0,125,i_54,,baseline,2a,Central
p_13790358,164,371.8999999,1,125,i_36,,baseline,2a,Central
p_13790358,165,285.4000001,1,125,i_38,,baseline,2a,Central
p_13790358,166,583.3,1,125,i_167,55,transposed,2a,Central
p_13790358,167,406.2,1,250,i_122,10,transposed,2a,Central
p_13790358,168,484.7,1,250,i_78,,baseline,2a,Central
p_13790358,169,421.5999999,1,250,i_192,80,control,2a,Central
p_13790358,170,428.8,1,125,i_32,,baseline,2a,Central
p_13790358,171,370,1,250,i_106,,baseline,2a,Central
p_13790358,172,342,1,250,i_132,20,transposed,2a,Central
p_13790358,173,466,1,125,i_56,,baseline,2a,Central
p_13790358,174,406.8,0,125,i_208,96,control,2a,Central
p_13790358,175,58.10000014,1,250,i_116,4,transposed,2a,Central
p_13790358,176,321.2,1,125,i_34,,baseline,2a,Central
p_13790358,177,532.5,1,250,i_179,67,control,2a,Central
p_13790358,178,673.4000001,1,250,i_102,,baseline,2a,Central
p_13790358,179,425,1,250,i_182,70,control,2a,Central
p_13790358,180,338.8,1,250,i_130,18,transposed,2a,Central
p_13790358,181,664.1000001,0,125,i_210,98,control,2a,Central
p_13790358,182,344.8000002,1,250,i_134,22,transposed,2a,Central
p_13790358,183,328.3,1,250,i_108,,baseline,2a,Central
p_13790358,184,344,1,250,i_100,,baseline,2a,Central
p_13790358,185,447.0999999,1,250,i_57,,baseline,2a,Central
p_13790358,186,544.5999999,1,250,i_87,,baseline,2a,Central
p_13790358,187,872.7,1,125,i_206,94,control,2a,Central
p_13790358,188,795.2,0,125,i_152,40,transposed,2a,Central
p_13790358,189,355.9000001,1,125,i_213,101,control,2a,Central
p_13790358,190,662.7,0,125,i_147,35,transposed,2a,Central
p_13790358,191,379.5999999,1,125,i_164,52,transposed,2a,Central
p_13790358,192,279.7,1,250,i_60,,baseline,2a,Central
p_13790358,193,390.3,1,250,i_129,17,transposed,2a,Central
p_13790358,194,302.8,1,250,i_137,25,transposed,2a,Central
p_13790358,195,781,1,125,i_199,87,control,2a,Central
p_13790358,196,338.5,1,125,i_26,,baseline,2a,Central
p_13790358,197,481,1,250,i_94,,baseline,2a,Central
p_13790358,198,1208.4,0,125,i_197,85,control,2a,Central
p_13790358,199,518.3999999,1,125,i_1,,baseline,2a,Central
p_13790358,200,334.7,1,125,i_45,,baseline,2a,Central
p_13790358,201,588.5,1,250,i_115,3,transposed,2a,Central
p_13790358,202,362.1000001,1,125,i_153,41,transposed,2a,Central
p_13790358,203,190.8,1,250,i_185,73,control,2a,Central
p_13790358,204,312,1,250,i_65,,baseline,2a,Central
p_13790358,205,842.7,1,125,i_161,49,transposed,2a,Central
p_13790358,206,637.5,1,250,i_64,,baseline,2a,Central
p_13790358,207,427.5,1,125,i_11,,baseline,2a,Central
p_13790358,208,527.5,1,125,i_33,,baseline,2a,Central
p_13790358,209,464.3999999,1,125,i_47,,baseline,2a,Central
p_13790358,210,307.2,1,250,i_187,75,control,2a,Central
p_13790358,211,474.3999999,1,125,i_40,,baseline,2a,Central
p_13790358,212,1111,0,125,i_218,106,control,2a,Central
p_13790358,213,421.2,1,125,i_37,,baseline,2a,Central
p_13790358,214,519.8,1,250,i_169,57,control,2a,Central
p_13790358,215,372.8,1,125,i_48,,baseline,2a,Central
p_13790358,216,354.1000001,1,250,i_181,69,control,2a,Central
p_13790358,217,313.5,1,250,i_188,76,control,2a,Central
p_13790358,218,408.7,1,250,i_174,62,control,2a,Central
p_13790358,219,131.0999999,1,250,i_114,2,transposed,2a,Central
p_13790358,220,766.2,1,125,i_6,,baseline,2a,Central
p_13790358,221,420.3999999,1,125,i_21,,baseline,2a,Central
p_13790358,222,485.8000002,0,125,i_151,39,transposed,2a,Central
p_13790358,223,342.2,1,250,i_104,,baseline,2a,Central
p_13790358,224,514.3,1,125,i_24,,baseline,2a,Central
p_13790360,1,410,1,125,i_12,,baseline,2a,Central
p_13790360,2,481.1,1,250,i_174,62,transposed,2a,Central
p_13790360,3,646.5999999,1,250,i_86,,baseline,2a,Central
p_13790360,4,430.1,1,125,i_166,54,control,2a,Central
p_13790360,5,457.3000001,1,250,i_68,,baseline,2a,Central
p_13790360,6,722.6999999,1,125,i_4,,baseline,2a,Central
p_13790360,7,266.9,1,250,i_98,,baseline,2a,Central
p_13790360,8,1116.3,0,250,i_63,,baseline,2a,Central
p_13790360,9,793.0999999,1,125,i_150,38,control,2a,Central
p_13790360,10,305.1999999,1,250,i_173,61,transposed,2a,Central
p_13790360,11,504.3000001,1,125,i_41,,baseline,2a,Central
p_13790360,12,310.8,1,250,i_128,16,control,2a,Central
p_13790360,13,871,0,125,i_27,,baseline,2a,Central
p_13790360,14,563.1,1,125,i_203,91,transposed,2a,Central
p_13790360,15,390.6,1,125,i_5,,baseline,2a,Central
p_13790360,16,432,1,250,i_70,,baseline,2a,Central
p_13790360,17,925,1,250,i_127,15,control,2a,Central
p_13790360,18,957.3000001,1,250,i_113,1,control,2a,Central
p_13790360,19,707.3,1,125,i_143,31,control,2a,Central
p_13790360,20,1934.1,1,250,i_138,26,control,2a,Central
p_13790360,21,658,1,250,i_188,76,transposed,2a,Central
p_13790360,22,712.0999999,1,250,i_84,,baseline,2a,Central
p_13790360,23,529.4,1,250,i_69,,baseline,2a,Central
p_13790360,24,654.8000001,1,250,i_72,,baseline,2a,Central
p_13790360,25,619.8,0,125,i_56,,baseline,2a,Central
p_13790360,26,1403.6,1,125,i_37,,baseline,2a,Central
p_13790360,27,549.8,0,125,i_211,99,transposed,2a,Central
p_13790360,28,649.2,0,125,i_51,,baseline,2a,Central
p_13790360,29,339.5,1,250,i_57,,baseline,2a,Central
p_13790360,30,1358.4,0,250,i_118,6,control,2a,Central
p_13790360,31,839.8,0,125,i_214,102,transposed,2a,Central
p_13790360,32,656.0999999,1,250,i_135,23,control,2a,Central
p_13790360,33,876.6,1,250,i_133,21,control,2a,Central
p_13790360,34,1332.8,1,250,i_190,78,transposed,2a,Central
p_13790360,35,485.9,1,250,i_134,22,control,2a,Central
p_13790360,36,486.3000001,1,125,i_40,,baseline,2a,Central
p_13790360,37,736.5,1,125,i_42,,baseline,2a,Central
p_13790360,38,396.3,1,250,i_89,,baseline,2a,Central
p_13790360,39,578.2,1,125,i_24,,baseline,2a,Central
p_13790360,40,527.5,1,125,i_158,46,control,2a,Central
p_13790360,41,582.3,1,125,i_46,,baseline,2a,Central
p_13790360,42,294.2,1,250,i_132,20,control,2a,Central
p_13790360,43,517.2,1,125,i_35,,baseline,2a,Central
p_13790360,44,342.5,1,250,i_177,65,transposed,2a,Central
p_13790360,45,425.2,1,125,i_47,,baseline,2a,Central
p_13790360,46,295.1999999,1,250,i_176,64,transposed,2a,Central
p_13790360,47,395.9,1,125,i_153,41,control,2a,Central
p_13790360,48,700,0,125,i_217,105,transposed,2a,Central
p_13790360,49,318,1,250,i_91,,baseline,2a,Central
p_13790360,50,368.9,1,250,i_93,,baseline,2a,Central
p_13790360,51,648.2,1,125,i_29,,baseline,2a,Central
p_13790360,52,271.5,1,250,i_87,,baseline,2a,Central
p_13790360,53,375.6,1,250,i_112,,baseline,2a,Central
p_13790360,54,475.2,1,250,i_140,28,control,2a,Central
p_13790360,55,354.0999999,1,250,i_137,25,control,2a,Central
p_13790360,56,309.3000001,1,250,i_75,,baseline,2a,Central
p_13790360,57,858.1,1,250,i_73,,baseline,2a,Central
p_13790360,58,1145.7,1,125,i_197,85,transposed,2a,Central
p_13790360,59,1195.8,1,250,i_61,,baseline,2a,Central
p_13790360,60,297.4000001,1,250,i_117,5,control,2a,Central
p_13790360,61,514.1,1,250,i_60,,baseline,2a,Central
p_13790360,62,1020.8,1,250,i_129,17,control,2a,Central
p_13790360,63,438.7,1,250,i_116,4,control,2a,Central
p_13790360,64,1768,1,250,i_58,,baseline,2a,Central
p_13790360,65,695.6,1,125,i_168,56,control,2a,Central
p_13790360,66,456.1999999,1,250,i_110,,baseline,2a,Central
p_13790360,67,666.6,1,250,i_80,,baseline,2a,Central
p_13790360,68,1328.5,0,125,i_17,,baseline,2a,Central
p_13790360,69,1502.4,1,250,i_122,10,control,2a,Central
p_13790360,70,618.8000001,1,125,i_50,,baseline,2a,Central
p_13790360,71,381.5,1,125,i_32,,baseline,2a,Central
p_13790360,72,158.0999999,1,250,i_169,57,transposed,2a,Central
p_13790360,73,2511,1,125,i_26,,baseline,2a,Central
p_13790360,74,3893.6,1,250,i_194,82,transposed,2a,Central
p_13790360,75,1491.4,0,125,i_205,93,transposed,2a,Central
p_13790360,76,769.5999999,1,125,i_28,,baseline,2a,Central
p_13790360,77,595.6,1,125,i_160,48,control,2a,Central
p_13790360,78,5817.1,1,250,i_82,,baseline,2a,Central
p_13790360,79,310.4000001,1,250,i_131,19,control,2a,Central
p_13790360,80,1337.9,1,125,i_146,34,control,2a,Central
p_13790360,81,575.1999999,1,250,i_95,,baseline,2a,Central
p_13790360,82,1000.2,1,125,i_200,88,transposed,2a,Central
p_13790360,83,1349.3,0,125,i_3,,baseline,2a,Central
p_13790360,84,1045.1,1,125,i_161,49,control,2a,Central
p_13790360,85,1990.4,0,125,i_209,97,transposed,2a,Central
p_13790360,86,589.9,1,125,i_156,44,control,2a,Central
p_13790360,87,870.3000001,1,125,i_18,,baseline,2a,Central
p_13790360,88,683.9,1,250,i_139,27,control,2a,Central
p_13790360,89,629.2,1,250,i_101,,baseline,2a,Central
p_13790360,90,827.7,1,250,i_103,,baseline,2a,Central
p_13790360,91,779,1,125,i_53,,baseline,2a,Central
p_13790360,92,1226.4,0,125,i_207,95,transposed,2a,Central
p_13790360,93,397.1,1,250,i_106,,baseline,2a,Central
p_13790360,94,1012.8,1,125,i_20,,baseline,2a,Central
p_13790360,95,644.9,1,250,i_67,,baseline,2a,Central
p_13790360,96,339.3000001,1,125,i_7,,baseline,2a,Central
p_13790360,97,1594,1,125,i_25,,baseline,2a,Central
p_13790360,98,488.1,1,250,i_108,,baseline,2a,Central
p_13790360,99,538.1,0,125,i_219,107,transposed,2a,Central
p_13790360,100,960.8,0,125,i_223,111,transposed,2a,Central
p_13790360,101,1272.5,1,125,i_164,52,control,2a,Central
p_13790360,102,1336.7,0,125,i_2,,baseline,2a,Central
p_13790360,103,886.8000001,1,125,i_224,112,transposed,2a,Central
p_13790360,104,789.9,1,250,i_81,,baseline,2a,Central
p_13790360,105,1388.2,0,125,i_34,,baseline,2a,Central
p_13790360,106,560.3,1,250,i_121,9,control,2a,Central
p_13790360,107,886.1999999,1,250,i_71,,baseline,2a,Central
p_13790360,108,503.1,1,250,i_172,60,transposed,2a,Central
p_13790360,109,585.3,0,125,i_8,,baseline,2a,Central
p_13790360,110,747.5,1,125,i_163,51,control,2a,Central
p_13790360,111,365.3,1,125,i_19,,baseline,2a,Central
p_13790360,112,404.8,1,250,i_104,,baseline,2a,Central
p_13790360,113,324.8,1,250,i_77,,baseline,2a,Central
p_13790360,114,902.8,0,125,i_44,,baseline,2a,Central
p_13790360,115,445.4,1,125,i_218,106,transposed,2a,Central
p_13790360,116,312.7,1,250,i_180,68,transposed,2a,Central
p_13790360,117,405.1,1,250,i_182,70,transposed,2a,Central
p_13790360,118,622,1,125,i_215,103,transposed,2a,Central
p_13790360,119,325.1999999,1,250,i_178,66,transposed,2a,Central
p_13790360,120,583.4,1,125,i_39,,baseline,2a,Central
p_13790360,121,508.9000001,1,250,i_119,7,control,2a,Central
p_13790360,122,1116.7,1,250,i_195,83,transposed,2a,Central
p_13790360,123,402.6,1,125,i_54,,baseline,2a,Central
p_13790360,124,1571.6,0,125,i_157,45,control,2a,Central
p_13790360,125,395.1,1,125,i_202,90,transposed,2a,Central
p_13790360,126,438.7,1,125,i_151,39,control,2a,Central
p_13790360,127,468.8000001,1,250,i_125,13,control,2a,Central
p_13790360,128,559.3000001,1,250,i_115,3,control,2a,Central
p_13790360,129,709.1999999,1,125,i_165,53,control,2a,Central
p_13790360,130,334.5,1,250,i_130,18,control,2a,Central
p_13790360,131,1440,1,250,i_79,,baseline,2a,Central
p_13790360,132,1397.8,1,250,i_96,,baseline,2a,Central
p_13790360,133,5003.2,1,125,i_208,96,transposed,2a,Central
p_13790360,134,3156.3,1,125,i_142,30,control,2a,Central
p_13790360,135,1361.2,1,250,i_170,58,transposed,2a,Central
p_13790360,136,322.3,1,250,i_78,,baseline,2a,Central
p_13790360,137,1157.7,1,125,i_147,35,control,2a,Central
p_13790360,138,336.6999999,1,250,i_105,,baseline,2a,Central
p_13790360,139,232.9,1,125,i_14,,baseline,2a,Central
p_13790360,140,20.0999999,1,250,i_191,79,transposed,2a,Central
p_13790360,141,833.6999999,1,125,i_162,50,control,2a,Central
p_13790360,142,533,1,250,i_76,,baseline,2a,Central
p_13790360,143,338.3000001,1,250,i_184,72,transposed,2a,Central
p_13790360,144,1420.9,1,125,i_11,,baseline,2a,Central
p_13790360,145,485,0,125,i_33,,baseline,2a,Central
p_13790360,146,784.1,1,125,i_149,37,control,2a,Central
p_13790360,147,883.3000001,0,125,i_45,,baseline,2a,Central
p_13790360,148,1849.3,1,250,i_193,81,transposed,2a,Central
p_13790360,149,324.8,1,125,i_43,,baseline,2a,Central
p_13790360,150,1561.3,0,250,i_179,67,transposed,2a,Central
p_13790360,151,2528.6,0,125,i_198,86,transposed,2a,Central
p_13790360,152,478.2,0,125,i_9,,baseline,2a,Central
p_13790360,153,548.6,1,250,i_186,74,transposed,2a,Central
p_13790360,154,547.6999999,1,250,i_107,,baseline,2a,Central
p_13790360,155,735.4,1,125,i_6,,baseline,2a,Central
p_13790360,156,555.3,0,250,i_100,,baseline,2a,Central
p_13790360,157,1127.3,1,250,i_183,71,transposed,2a,Central
p_13790360,158,282.1999999,1,250,i_62,,baseline,2a,Central
p_13790360,159,945.3000001,0,125,i_36,,baseline,2a,Central
p_13790360,160,967.9,0,250,i_66,,baseline,2a,Central
p_13790360,161,1017.9,1,250,i_189,77,transposed,2a,Central
p_13790360,162,983.6,1,125,i_10,,baseline,2a,Central
p_13790360,163,107.7,1,250,i_185,73,transposed,2a,Central
p_13790360,164,366.7,1,250,i_64,,baseline,2a,Central
p_13790360,165,943.2,1,125,i_206,94,transposed,2a,Central
p_13790360,166,535.9,1,125,i_145,33,control,2a,Central
p_13790360,167,263.0999999,1,250,i_123,11,control,2a,Central
p_13790360,168,511.5,0,125,i_199,87,transposed,2a,Central
p_13790360,169,287.5,1,250,i_187,75,transposed,2a,Central
p_13790360,170,573.9,1,250,i_126,14,control,2a,Central
p_13790360,171,538,1,250,i_102,,baseline,2a,Central
p_13790360,172,568.4,1,125,i_23,,baseline,2a,Central
p_13790360,173,258.1,1,250,i_59,,baseline,2a,Central
p_13790360,174,1170.3,1,250,i_90,,baseline,2a,Central
p_13790360,175,1445.7,0,125,i_21,,baseline,2a,Central
p_13790360,176,675.3000001,1,125,i_148,36,control,2a,Central
p_13790360,177,534,1,125,i_38,,baseline,2a,Central
p_13790360,178,675.9,1,125,i_216,104,transposed,2a,Central
p_13790360,179,619.6999999,1,125,i_31,,baseline,2a,Central
p_13790360,180,1150.8,0,125,i_201,89,transposed,2a,Central
p_13790360,181,563.7,1,250,i_109,,baseline,2a,Central
p_13790360,182,389.4,1,250,i_97,,baseline,2a,Central
p_13790360,183,182.6,1,250,i_114,2,control,2a,Central
p_13790360,184,669.9,1,125,i_213,101,transposed,2a,Central
p_13790360,185,655.4000001,1,125,i_52,,baseline,2a,Central
p_13790360,186,429.8,1,250,i_111,,baseline,2a,Central
p_13790360,187,720.4,0,125,i_212,100,transposed,2a,Central
p_13790360,188,866.6,1,250,i_83,,baseline,2a,Central
p_13790360,189,1020.2,1,250,i_120,8,control,2a,Central
p_13790360,190,361.7,1,125,i_49,,baseline,2a,Central
p_13790360,191,551.4,1,125,i_159,47,control,2a,Central
p_13790360,192,890.1,1,250,i_196,84,transposed,2a,Central
p_13790360,193,502,1,250,i_92,,baseline,2a,Central
p_13790360,194,1099.3,1,125,i_30,,baseline,2a,Central
p_13790360,195,865.9,1,125,i_22,,baseline,2a,Central
p_13790360,196,387.8000001,0,250,i_65,,baseline,2a,Central
p_13790360,197,615,1,125,i_141,29,control,2a,Central
p_13790360,198,426.9,0,250,i_88,,baseline,2a,Central
p_13790360,199,274.4,1,125,i_210,98,transposed,2a,Central
p_13790360,200,352.5999999,1,125,i_13,,baseline,2a,Central
p_13790360,201,1559.9,1,125,i_167,55,control,2a,Central
p_13790360,202,953.2,1,125,i_155,43,control,2a,Central
p_13790360,203,429.5,0,125,i_221,109,transposed,2a,Central
p_13790360,204,488.4,1,125,i_55,,baseline,2a,Central
p_13790360,205,647.6,1,125,i_48,,baseline,2a,Central
p_13790360,206,294,1,250,i_124,12,control,2a,Central
p_13790360,207,302.3000001,1,250,i_175,63,transposed,2a,Central
p_13790360,208,388.9000001,1,250,i_99,,baseline,2a,Central
p_13790360,209,413,1,250,i_94,,baseline,2a,Central
p_13790360,210,428.8000001,1,250,i_85,,baseline,2a,Central
